id;Attitude Roll;Attitude Pitch;Attitude Azimuth;Gravity X;Gravity Y;Gravity Z;Rotation Rate X;Rotation Rate Y;Rotation Rate Z;User Acceleration X;User Acceleration Z;User Acceleration Y
1;0.0;0.0;0.0;0.0;0.0;0.0;-0.61463946;0.20891882;-0.141676;0.0;0.0;0.0
2;0.0;0.0;0.0;0.0;0.0;0.0;-0.61463946;0.20891882;-0.141676;0.0;0.0;0.0
3;0.0;0.0;0.0;2.9919636;-8.463729;3.947636;-0.61463946;0.20891882;-0.141676;0.0;0.0;0.0
4;0.0;0.0;0.0;2.9919636;-8.463729;3.947636;-0.55804896;0.1933398;0.11331416;0.0;0.0;0.0
5;0.0;0.0;0.0;2.9919636;-8.463729;3.947636;-0.55804896;0.1933398;0.11331416;0.0;0.0;0.0
6;0.5005959;2.8690147;-1.4710323;2.7383077;-9.140666;2.2628024;-0.55804896;0.1933398;0.11331416;-0.007024647;0.08927315;0.019014865
7;0.5005959;2.8690147;-1.4710323;2.7383077;-9.140666;2.2628024;-0.59373426;-0.11318101;-0.18468477;-0.007024647;0.08927315;0.019014865
8;0.5005959;2.8690147;-1.4710323;2.7383077;-9.140666;2.2628024;-0.59373426;-0.11318101;-0.18468477;-0.007024647;0.08927315;0.019014865
9;0.5005959;2.8690147;-1.4710323;2.7383077;-9.140666;2.2628024;-0.59373426;-0.11318101;-0.18468477;-0.007024647;0.08927315;0.019014865
10;0.5894541;2.8169863;-0.92289966;3.2932713;-9.223808;0.49610242;-0.59373426;-0.11318101;-0.18468477;-0.04564836;0.12832145;0.017069215
11;0.5894541;2.8169863;-0.92289966;3.2932713;-9.223808;0.49610242;-0.13222206;-0.45778388;0.20479105;-0.04564836;0.12832145;0.017069215
12;0.5894541;2.8169863;-0.92289966;3.2932713;-9.223808;0.49610242;-0.13222206;-0.45778388;0.20479105;-0.04564836;0.12832145;0.017069215
13;0.5894541;2.8169863;-0.92289966;3.2932713;-9.223808;0.49610242;-0.13222206;-0.45778388;0.20479105;-0.04564836;0.12832145;0.017069215
14;0.5878309;2.8198411;0.45986134;3.263102;-9.247758;-0.039220784;-0.13222206;-0.45778388;0.20479105;-0.098529086;0.0017807616;-0.060149528
15;0.5878309;2.8198411;0.45986134;3.263102;-9.247758;-0.039220784;0.39733192;0.51663804;0.26257995;-0.098529086;0.0017807616;-0.060149528
16;0.5878309;2.8198411;0.45986134;3.263102;-9.247758;-0.039220784;0.39733192;0.51663804;0.26257995;-0.098529086;0.0017807616;-0.060149528
17;0.5878309;2.8198411;0.45986134;3.263102;-9.247758;-0.039220784;0.39733192;0.51663804;0.26257995;-0.098529086;0.0017807616;-0.060149528
18;0.563808;2.8368816;-1.7729827;3.0820215;-9.27492;0.8046015;0.39733192;0.51663804;0.26257995;-0.1712948;0.07684562;0.020624252
19;0.563808;2.8368816;-1.7729827;3.0820215;-9.27492;0.8046015;0.8186316;1.122223;-0.35898352;-0.1712948;0.07684562;0.020624252
20;0.563808;2.8368816;-1.7729827;3.0820215;-9.27492;0.8046015;0.8186316;1.122223;-0.35898352;-0.1712948;0.07684562;0.020624252
21;0.563808;2.8368816;-1.7729827;3.0820215;-9.27492;0.8046015;0.8186316;1.122223;-0.35898352;-0.1712948;0.07684562;0.020624252
22;0.563808;2.8368816;-1.7729827;3.0820215;-9.27492;0.8046015;0.8186316;1.122223;-0.35898352;-0.1712948;0.07684562;0.020624252
23;0.55157423;2.8143878;-1.2107368;3.2681832;-8.858839;2.6477032;0.8186316;1.122223;-0.35898352;0.02023729;0.1838142;0.056549966
24;0.55157423;2.8143878;-1.2107368;3.2681832;-8.858839;2.6477032;0.8186316;1.122223;-0.35898352;0.02023729;0.1838142;0.056549966
25;0.55157423;2.8143878;-1.2107368;3.2681832;-8.858839;2.6477032;-0.45698497;0.61890036;-0.5238283;0.02023729;0.1838142;0.056549966
26;0.55157423;2.8143878;-1.2107368;3.2681832;-8.858839;2.6477032;-0.45698497;0.61890036;-0.5238283;0.02023729;0.1838142;0.056549966
27;0.5950009;2.7340376;-0.47212878;3.2681832;-8.858839;2.6477032;-0.45698497;0.61890036;-0.5238283;0.02023729;0.1838142;0.056549966
28;0.5950009;2.7340376;-0.47212878;3.6837587;-8.823553;2.1783512;-0.45698497;0.61890036;-0.5238283;0.15588015;0.09657505;-0.05918312
29;0.5950009;2.7340376;-0.47212878;3.6837587;-8.823553;2.1783512;-0.3123796;0.5286219;0.052329574;0.15588015;0.09657505;-0.05918312
30;0.5950009;2.7340376;-0.47212878;3.6837587;-8.823553;2.1783512;-0.3123796;0.5286219;0.052329574;0.15588015;0.09657505;-0.05918312
31;0.5950009;2.7340376;-0.47212878;3.6837587;-8.823553;2.1783512;-0.3123796;0.5286219;0.052329574;0.15588015;0.09657505;-0.05918312
32;0.53929514;2.6733475;-0.19963512;3.3208349;-8.938256;2.29129;-0.3123796;0.5286219;0.052329574;-0.0020186591;-0.23534064;0.06828736
33;0.53929514;2.6733475;-0.19963512;3.3208349;-8.938256;2.29129;-0.3123796;0.5286219;0.052329574;-0.0020186591;-0.23534064;0.06828736
34;0.53929514;2.6733475;-0.19963512;3.3208349;-8.938256;2.29129;-0.7950633;-0.33195323;-0.16764104;-0.0020186591;-0.23534064;0.06828736
35;0.53929514;2.6733475;-0.19963512;3.3208349;-8.938256;2.29129;-0.7950633;-0.33195323;-0.16764104;-0.0020186591;-0.23534064;0.06828736
36;0.53929514;2.6733475;-0.19963512;3.3208349;-8.938256;2.29129;-0.7950633;-0.33195323;-0.16764104;-0.0020186591;-0.23534064;0.06828736
37;0.731216;2.5954795;0.3047055;3.675495;-9.082857;0.4035334;-0.7950633;-0.33195323;-0.16764104;0.028073069;0.19387059;0.008968232
38;0.731216;2.5954795;0.3047055;3.675495;-9.082857;0.4035334;-0.7950633;-0.33195323;-0.16764104;0.028073069;0.19387059;0.008968232
39;0.731216;2.5954795;0.3047055;3.675495;-9.082857;0.4035334;-0.21930484;-0.8196968;0.20905198;0.028073069;0.19387059;0.008968232
40;0.731216;2.5954795;0.3047055;3.675495;-9.082857;0.4035334;-0.21930484;-0.8196968;0.20905198;0.028073069;0.19387059;0.008968232
41;0.731216;2.5954795;0.3047055;3.675495;-9.082857;0.4035334;-0.21930484;-0.8196968;0.20905198;0.028073069;0.19387059;0.008968232
42;0.7106357;2.6711743;0.4414134;3.2882795;-9.225559;-0.4966544;-0.21930484;-0.8196968;0.20905198;0.008816675;-0.07225595;-0.096411705
43;0.7106357;2.6711743;0.4414134;3.2882795;-9.225559;-0.4966544;0.57748944;0.5049205;-0.100797676;0.008816675;-0.07225595;-0.096411705
44;0.7106357;2.6711743;0.4414134;3.2882795;-9.225559;-0.4966544;0.57748944;0.5049205;-0.100797676;0.008816675;-0.07225595;-0.096411705
45;0.7106357;2.6711743;0.4414134;3.2882795;-9.225559;-0.4966544;0.57748944;0.5049205;-0.100797676;0.008816675;-0.07225595;-0.096411705
46;0.7106357;2.6711743;0.4414134;3.2882795;-9.225559;-0.4966544;0.57748944;0.5049205;-0.100797676;0.008816675;-0.07225595;-0.096411705
47;0.651255;2.7079663;0.13382766;3.5765543;-9.095061;0.811471;0.57748944;0.5049205;-0.100797676;-0.18863276;0.08042758;0.07189761
48;0.651255;2.7079663;0.13382766;3.5765543;-9.095061;0.811471;1.5227506;-0.19813335;-0.13035789;-0.18863276;0.08042758;0.07189761
49;0.651255;2.7079663;0.13382766;3.5765543;-9.095061;0.811471;1.5227506;-0.19813335;-0.13035789;-0.18863276;0.08042758;0.07189761
50;0.651255;2.7079663;0.13382766;3.5765543;-9.095061;0.811471;1.5227506;-0.19813335;-0.13035789;-0.18863276;0.08042758;0.07189761
51;0.651255;2.7079663;0.13382766;3.5765543;-9.095061;0.811471;1.5227506;-0.19813335;-0.13035789;-0.18863276;0.08042758;0.07189761
52;0.5465177;2.5932271;-0.29148445;3.6784003;-8.5505705;3.0866637;1.5227506;-0.19813335;-0.13035789;0.27829304;0.2773992;0.21789639
53;0.5465177;2.5932271;-0.29148445;3.6784003;-8.5505705;3.0866637;-0.68601006;-0.33341792;0.032090146;0.27829304;0.2773992;0.21789639
54;0.5465177;2.5932271;-0.29148445;3.6784003;-8.5505705;3.0866637;-0.68601006;-0.33341792;0.032090146;0.27829304;0.2773992;0.21789639
55;0.5465177;2.5932271;-0.29148445;3.6784003;-8.5505705;3.0866637;-0.68601006;-0.33341792;0.032090146;0.27829304;0.2773992;0.21789639
56;0.5465177;2.5932271;-0.29148445;3.6784003;-8.5505705;3.0866637;-0.68601006;-0.33341792;0.032090146;0.27829304;0.2773992;0.21789639
57;0.62218094;2.7116206;-0.23567338;3.7419732;-8.887415;1.7837828;-0.68601006;-0.33341792;0.032090146;0.15790983;-0.13429382;-0.20878287
58;0.62218094;2.7116206;-0.23567338;3.7419732;-8.887415;1.7837828;-0.49413496;0.077895164;0.34433657;0.15790983;-0.13429382;-0.20878287
59;0.62218094;2.7116206;-0.23567338;3.7419732;-8.887415;1.7837828;-0.49413496;0.077895164;0.34433657;0.15790983;-0.13429382;-0.20878287
60;0.62218094;2.7116206;-0.23567338;3.7419732;-8.887415;1.7837828;-0.49413496;0.077895164;0.34433657;0.15790983;-0.13429382;-0.20878287
61;0.62218094;2.7116206;-0.23567338;3.7419732;-8.887415;1.7837828;-0.49413496;0.077895164;0.34433657;0.15790983;-0.13429382;-0.20878287
62;0.56008154;2.7929597;-0.03251296;3.0975606;-9.260981;0.8998536;-0.49413496;0.077895164;0.34433657;-0.024467068;0.050060928;0.11221801
63;0.56008154;2.7929597;-0.03251296;3.0975606;-9.260981;0.8998536;-0.58734286;0.11664302;-0.13848029;-0.024467068;0.050060928;0.11221801
64;0.56008154;2.7929597;-0.03251296;3.0975606;-9.260981;0.8998536;-0.58734286;0.11664302;-0.13848029;-0.024467068;0.050060928;0.11221801
65;0.56008154;2.7929597;-0.03251296;3.0975606;-9.260981;0.8998536;-0.58734286;0.11664302;-0.13848029;-0.024467068;0.050060928;0.11221801
66;0.56008154;2.7929597;-0.03251296;3.0975606;-9.260981;0.8998536;-0.58734286;0.11664302;-0.13848029;-0.024467068;0.050060928;0.11221801
67;0.64181733;2.7623367;0.37356454;3.3721654;-9.208404;-0.06475732;-0.58734286;0.11664302;-0.13848029;-0.052146684;-0.06606022;0.013343857
68;0.64181733;2.7623367;0.37356454;3.3721654;-9.208404;-0.06475732;-0.049533337;-0.8173;0.23634858;-0.052146684;-0.06606022;0.013343857
69;0.64181733;2.7623367;0.37356454;3.3721654;-9.208404;-0.06475732;-0.049533337;-0.8173;0.23634858;-0.052146684;-0.06606022;0.013343857
70;0.64181733;2.7623367;0.37356454;3.3721654;-9.208404;-0.06475732;-0.049533337;-0.8173;0.23634858;-0.052146684;-0.06606022;0.013343857
71;0.64181733;2.7623367;0.37356454;3.3721654;-9.208404;-0.06475732;-0.049533337;-0.8173;0.23634858;-0.052146684;-0.06606022;0.013343857
72;0.60978335;2.7905686;0.4617491;2.9255502;-9.343453;-0.55806106;-0.049533337;-0.8173;0.23634858;-0.0988253;-0.16990128;-0.031257283
73;0.60978335;2.7905686;0.4617491;2.9255502;-9.343453;-0.55806106;-0.049533337;-0.8173;0.23634858;-0.0988253;-0.16990128;-0.031257283
74;0.60978335;2.7905686;0.4617491;2.9255502;-9.343453;-0.55806106;1.4077054;0.41757134;-0.2371475;-0.0988253;-0.16990128;-0.031257283
75;0.60978335;2.7905686;0.4617491;2.9255502;-9.343453;-0.55806106;1.4077054;0.41757134;-0.2371475;-0.0988253;-0.16990128;-0.031257283
76;0.60978335;2.7905686;0.4617491;2.9255502;-9.343453;-0.55806106;1.4077054;0.41757134;-0.2371475;-0.0988253;-0.16990128;-0.031257283
77;0.5302563;2.7861648;-0.5649701;3.2442803;-8.996289;2.1706753;1.4077054;0.41757134;-0.2371475;-0.018577984;0.17259693;0.1440128
78;0.5302563;2.7861648;-0.5649701;3.2442803;-8.996289;2.1706753;1.4077054;0.41757134;-0.2371475;-0.018577984;0.17259693;0.1440128
79;0.5302563;2.7861648;-0.5649701;3.2442803;-8.996289;2.1706753;0.36324447;0.24833246;-0.13621667;-0.018577984;0.17259693;0.1440128
80;0.5302563;2.7861648;-0.5649701;3.2442803;-8.996289;2.1706753;0.36324447;0.24833246;-0.13621667;-0.018577984;0.17259693;0.1440128
81;0.5302563;2.7861648;-0.5649701;3.2442803;-8.996289;2.1706753;0.36324447;0.24833246;-0.13621667;-0.018577984;0.17259693;0.1440128
82;0.50549304;2.7662277;-0.6582269;3.313058;-8.77416;2.8649867;0.36324447;0.24833246;-0.13621667;0.10388915;0.22907856;-0.004622744
83;0.50549304;2.7662277;-0.6582269;3.313058;-8.77416;2.8649867;0.36324447;0.24833246;-0.13621667;0.10388915;0.22907856;-0.004622744
84;0.50549304;2.7662277;-0.6582269;3.313058;-8.77416;2.8649867;-0.43621293;-0.10319445;-0.06950645;0.10388915;0.22907856;-0.004622744
85;0.50549304;2.7662277;-0.6582269;3.313058;-8.77416;2.8649867;-0.43621293;-0.10319445;-0.06950645;0.10388915;0.22907856;-0.004622744
86;0.50549304;2.7662277;-0.6582269;3.313058;-8.77416;2.8649867;-0.43621293;-0.10319445;-0.06950645;0.10388915;0.22907856;-0.004622744
87;0.56148857;2.7506497;-0.43887293;3.456335;-8.920847;2.1546764;-0.43621293;-0.10319445;-0.06950645;0.06611502;-0.23243336;-0.07757222
88;0.56148857;2.7506497;-0.43887293;3.456335;-8.920847;2.1546764;-0.43621293;-0.10319445;-0.06950645;0.06611502;-0.23243336;-0.07757222
89;0.56148857;2.7506497;-0.43887293;3.456335;-8.920847;2.1546764;-0.8973257;-0.37536147;0.39333728;0.06611502;-0.23243336;-0.07757222
90;0.56148857;2.7506497;-0.43887293;3.456335;-8.920847;2.1546764;-0.8973257;-0.37536147;0.39333728;0.06611502;-0.23243336;-0.07757222
91;0.56148857;2.7506497;-0.43887293;3.456335;-8.920847;2.1546764;-0.8973257;-0.37536147;0.39333728;0.06611502;-0.23243336;-0.07757222
92;0.56148857;2.7506497;-0.43887293;3.456335;-8.920847;2.1546764;-0.8973257;-0.37536147;0.39333728;0.06611502;-0.23243336;-0.07757222
93;0.53839135;2.831924;0.17948025;2.8369727;-9.383874;0.25474682;-0.8973257;-0.37536147;0.39333728;-0.02214945;0.053679753;-0.0021825628
94;0.53839135;2.831924;0.17948025;2.8369727;-9.383874;0.25474682;-0.8973257;-0.37536147;0.39333728;-0.02214945;0.053679753;-0.0021825628
95;0.53839135;2.831924;0.17948025;2.8369727;-9.383874;0.25474682;-0.15565717;-0.63434625;-0.025432438;-0.02214945;0.053679753;-0.0021825628
96;0.53839135;2.831924;0.17948025;2.8369727;-9.383874;0.25474682;-0.15565717;-0.63434625;-0.025432438;-0.02214945;0.053679753;-0.0021825628
97;0.53839135;2.831924;0.17948025;2.8369727;-9.383874;0.25474682;-0.15565717;-0.63434625;-0.025432438;-0.02214945;0.053679753;-0.0021825628
98;0.55989105;2.8346;0.46281505;2.8872094;-9.365652;-0.3449468;-0.15565717;-0.63434625;-0.025432438;-0.054401405;-0.08643808;-0.012046627
99;0.55989105;2.8346;0.46281505;2.8872094;-9.365652;-0.3449468;-0.15565717;-0.63434625;-0.025432438;-0.054401405;-0.08643808;-0.012046627
100;0.55989105;2.8346;0.46281505;2.8872094;-9.365652;-0.3449468;0.22116901;0.02063889;0.10519176;-0.054401405;-0.08643808;-0.012046627
101;0.55989105;2.8346;0.46281505;2.8872094;-9.365652;-0.3449468;0.22116901;0.02063889;0.10519176;-0.054401405;-0.08643808;-0.012046627
102;0.55989105;2.8346;0.46281505;2.8872094;-9.365652;-0.3449468;0.22116901;0.02063889;0.10519176;-0.054401405;-0.08643808;-0.012046627
103;0.55989105;2.8346;0.46281505;2.8872094;-9.365652;-0.3449468;0.22116901;0.02063889;0.10519176;-0.054401405;-0.08643808;-0.012046627
104;0.52207303;2.8582053;0.1747172;2.8046749;-9.396398;0.10908465;0.22116901;0.02063889;0.10519176;-0.2620942;-0.064003505;0.021366484
105;0.52207303;2.8582053;0.1747172;2.8046749;-9.396398;0.10908465;0.22116901;0.02063889;0.10519176;-0.2620942;-0.064003505;0.021366484
106;0.52207303;2.8582053;0.1747172;2.8046749;-9.396398;0.10908465;1.7059706;1.2979864;-0.10172975;-0.2620942;-0.064003505;0.021366484
107;0.52207303;2.8582053;0.1747172;2.8046749;-9.396398;0.10908465;1.7059706;1.2979864;-0.10172975;-0.2620942;-0.064003505;0.021366484
108;0.52207303;2.8582053;0.1747172;2.8046749;-9.396398;0.10908465;1.7059706;1.2979864;-0.10172975;-0.2620942;-0.064003505;0.021366484
109;0.52207303;2.8582053;0.1747172;2.8046749;-9.396398;0.10908465;1.7059706;1.2979864;-0.10172975;-0.2620942;-0.064003505;0.021366484
110;0.35102594;2.8851244;-1.1001942;2.4143357;-8.7474165;3.718074;1.7059706;1.2979864;-0.10172975;0.071704835;0.35168326;0.22535829
111;0.35102594;2.8851244;-1.1001942;2.4143357;-8.7474165;3.718074;-0.19267403;0.40678588;-0.44566688;0.071704835;0.35168326;0.22535829
112;0.35102594;2.8851244;-1.1001942;2.4143357;-8.7474165;3.718074;-0.19267403;0.40678588;-0.44566688;0.071704835;0.35168326;0.22535829
113;0.35102594;2.8851244;-1.1001942;2.4143357;-8.7474165;3.718074;-0.19267403;0.40678588;-0.44566688;0.071704835;0.35168326;0.22535829
114;0.35102594;2.8851244;-1.1001942;2.4143357;-8.7474165;3.718074;-0.19267403;0.40678588;-0.44566688;0.071704835;0.35168326;0.22535829
115;0.36590916;2.790991;-0.6788764;2.8190434;-8.697814;3.5456195;-0.19267403;0.40678588;-0.44566688;0.14322658;0.17748244;-0.16352184
116;0.36590916;2.790991;-0.6788764;2.8190434;-8.697814;3.5456195;-0.19267403;0.40678588;-0.44566688;0.14322658;0.17748244;-0.16352184
117;0.36590916;2.790991;-0.6788764;2.8190434;-8.697814;3.5456195;-0.6374088;-0.68081707;-0.09320789;0.14322658;0.17748244;-0.16352184
118;0.36590916;2.790991;-0.6788764;2.8190434;-8.697814;3.5456195;-0.6374088;-0.68081707;-0.09320789;0.14322658;0.17748244;-0.16352184
119;0.36590916;2.790991;-0.6788764;2.8190434;-8.697814;3.5456195;-0.6374088;-0.68081707;-0.09320789;0.14322658;0.17748244;-0.16352184
120;0.36590916;2.790991;-0.6788764;2.8190434;-8.697814;3.5456195;-0.6374088;-0.68081707;-0.09320789;0.14322658;0.17748244;-0.16352184
121;0.5377451;2.70021;-0.20968051;3.2784247;-8.987298;2.1565661;-0.6374088;-0.68081707;-0.09320789;0.067708954;-0.36234036;0.15487058
122;0.5377451;2.70021;-0.20968051;3.2784247;-8.987298;2.1565661;-0.6374088;-0.68081707;-0.09320789;0.067708954;-0.36234036;0.15487058
123;0.5377451;2.70021;-0.20968051;3.2784247;-8.987298;2.1565661;-0.68601006;-0.6460638;0.054060575;0.067708954;-0.36234036;0.15487058
124;0.5377451;2.70021;-0.20968051;3.2784247;-8.987298;2.1565661;-0.68601006;-0.6460638;0.054060575;0.067708954;-0.36234036;0.15487058
125;0.5377451;2.70021;-0.20968051;3.2784247;-8.987298;2.1565661;-0.68601006;-0.6460638;0.054060575;0.067708954;-0.36234036;0.15487058
126;0.5377451;2.70021;-0.20968051;3.2784247;-8.987298;2.1565661;-0.68601006;-0.6460638;0.054060575;0.067708954;-0.36234036;0.15487058
127;0.6229491;2.76408;0.19089653;3.3871415;-9.193391;0.42337403;-0.68601006;-0.6460638;0.054060575;-0.04713759;0.12522976;-0.0850624
128;0.6229491;2.76408;0.19089653;3.3871415;-9.193391;0.42337403;-0.68601006;-0.6460638;0.054060575;-0.04713759;0.12522976;-0.0850624
129;0.6229491;2.76408;0.19089653;3.3871415;-9.193391;0.42337403;-0.091077425;-1.2591054;0.07177007;-0.04713759;0.12522976;-0.0850624
130;0.6229491;2.76408;0.19089653;3.3871415;-9.193391;0.42337403;-0.091077425;-1.2591054;0.07177007;-0.04713759;0.12522976;-0.0850624
131;0.6229491;2.76408;0.19089653;3.3871415;-9.193391;0.42337403;-0.091077425;-1.2591054;0.07177007;-0.04713759;0.12522976;-0.0850624
132;0.6229491;2.76408;0.19089653;3.3871415;-9.193391;0.42337403;-0.091077425;-1.2591054;0.07177007;-0.04713759;0.12522976;-0.0850624
133;0.60442555;2.810857;0.6211722;3.2026367;-9.252946;-0.54451054;-0.091077425;-1.2591054;0.07177007;0.048642393;-0.062617995;-0.078718565
134;0.60442555;2.810857;0.6211722;3.2026367;-9.252946;-0.54451054;-0.091077425;-1.2591054;0.07177007;0.048642393;-0.062617995;-0.078718565
135;0.60442555;2.810857;0.6211722;3.2026367;-9.252946;-0.54451054;0.06844122;-0.7802832;0.2093183;0.048642393;-0.062617995;-0.078718565
136;0.60442555;2.810857;0.6211722;3.2026367;-9.252946;-0.54451054;0.06844122;-0.7802832;0.2093183;0.048642393;-0.062617995;-0.078718565
137;0.60442555;2.810857;0.6211722;3.2026367;-9.252946;-0.54451054;0.06844122;-0.7802832;0.2093183;0.048642393;-0.062617995;-0.078718565
138;0.60442555;2.810857;0.6211722;3.2026367;-9.252946;-0.54451054;0.06844122;-0.7802832;0.2093183;0.048642393;-0.062617995;-0.078718565
139;0.5097945;2.8619483;2.3671978;2.7892842;-9.3649435;-0.829532;0.06844122;-0.7802832;0.2093183;-0.19178896;-0.10145338;-0.00602448
140;0.5097945;2.8619483;2.3671978;2.7892842;-9.3649435;-0.829532;0.06844122;-0.7802832;0.2093183;-0.19178896;-0.10145338;-0.00602448
141;0.5097945;2.8619483;2.3671978;2.7892842;-9.3649435;-0.829532;1.548982;0.73687494;-0.3402088;-0.19178896;-0.10145338;-0.00602448
142;0.5097945;2.8619483;2.3671978;2.7892842;-9.3649435;-0.829532;1.548982;0.73687494;-0.3402088;-0.19178896;-0.10145338;-0.00602448
143;0.5097945;2.8619483;2.3671978;2.7892842;-9.3649435;-0.829532;1.548982;0.73687494;-0.3402088;-0.19178896;-0.10145338;-0.00602448
144;0.5097945;2.8619483;2.3671978;2.7892842;-9.3649435;-0.829532;1.548982;0.73687494;-0.3402088;-0.19178896;-0.10145338;-0.00602448
145;0.62644327;2.8178313;-1.941329;3.2073731;-8.96351;2.3534296;1.548982;0.73687494;-0.3402088;0.058806438;0.20089331;0.18516698
146;0.62644327;2.8178313;-1.941329;3.2073731;-8.96351;2.3534296;0.085884415;0.9549814;-0.3675054;0.058806438;0.20089331;0.18516698
147;0.62644327;2.8178313;-1.941329;3.2073731;-8.96351;2.3534296;0.085884415;0.9549814;-0.3675054;0.058806438;0.20089331;0.18516698
148;0.62644327;2.8178313;-1.941329;3.2073731;-8.96351;2.3534296;0.085884415;0.9549814;-0.3675054;0.058806438;0.20089331;0.18516698
149;0.62644327;2.8178313;-1.941329;3.2073731;-8.96351;2.3534296;0.085884415;0.9549814;-0.3675054;0.058806438;0.20089331;0.18516698
150;0.62644327;2.8178313;-1.941329;3.2073731;-8.96351;2.3534296;0.085884415;0.9549814;-0.3675054;0.058806438;0.20089331;0.18516698
151;0.6083555;2.817896;-1.6815108;3.2806652;-8.729581;3.033487;0.085884415;0.9549814;-0.3675054;0.073724754;0.2526081;-0.094951645
152;0.6083555;2.817896;-1.6815108;3.2806652;-8.729581;3.033487;-0.3556547;-0.25379178;0.2031932;0.073724754;0.2526081;-0.094951645
153;0.6083555;2.817896;-1.6815108;3.2806652;-8.729581;3.033487;-0.3556547;-0.25379178;0.2031932;0.073724754;0.2526081;-0.094951645
154;0.6083555;2.817896;-1.6815108;3.2806652;-8.729581;3.033487;-0.3556547;-0.25379178;0.2031932;0.073724754;0.2526081;-0.094951645
155;0.6083555;2.817896;-1.6815108;3.2806652;-8.729581;3.033487;-0.3556547;-0.25379178;0.2031932;0.073724754;0.2526081;-0.094951645
156;0.6083555;2.817896;-1.6815108;3.2806652;-8.729581;3.033487;-0.3556547;-0.25379178;0.2031932;0.073724754;0.2526081;-0.094951645
157;0.5149712;2.8337111;-1.0765691;3.0344653;-9.0200815;2.3665485;-0.3556547;-0.25379178;0.2031932;-0.012977334;-0.25861415;0.045708314
158;0.5149712;2.8337111;-1.0765691;3.0344653;-9.0200815;2.3665485;-0.70984465;-1.0563117;0.07643047;-0.012977334;-0.25861415;0.045708314
159;0.5149712;2.8337111;-1.0765691;3.0344653;-9.0200815;2.3665485;-0.70984465;-1.0563117;0.07643047;-0.012977334;-0.25861415;0.045708314
160;0.5149712;2.8337111;-1.0765691;3.0344653;-9.0200815;2.3665485;-0.70984465;-1.0563117;0.07643047;-0.012977334;-0.25861415;0.045708314
161;0.5149712;2.8337111;-1.0765691;3.0344653;-9.0200815;2.3665485;-0.70984465;-1.0563117;0.07643047;-0.012977334;-0.25861415;0.045708314
162;0.5718488;2.8295112;-0.9276825;3.1612947;-9.277848;0.31327724;-0.70984465;-1.0563117;0.07643047;0.032328803;0.20901708;0.05805932
163;0.5718488;2.8295112;-0.9276825;3.1612947;-9.277848;0.31327724;-0.70984465;-1.0563117;0.07643047;0.032328803;0.20901708;0.05805932
164;0.5718488;2.8295112;-0.9276825;3.1612947;-9.277848;0.31327724;0.012383334;-1.6408583;0.31131434;0.032328803;0.20901708;0.05805932
165;0.5718488;2.8295112;-0.9276825;3.1612947;-9.277848;0.31327724;0.012383334;-1.6408583;0.31131434;0.032328803;0.20901708;0.05805932
166;0.5718488;2.8295112;-0.9276825;3.1612947;-9.277848;0.31327724;0.012383334;-1.6408583;0.31131434;0.032328803;0.20901708;0.05805932
167;0.5718488;2.8295112;-0.9276825;3.1612947;-9.277848;0.31327724;0.012383334;-1.6408583;0.31131434;0.032328803;0.20901708;0.05805932
168;0.47316623;2.8761072;3.0526977;2.5332022;-9.458386;-0.54056;0.012383334;-1.6408583;0.31131434;-0.051583596;-0.1211899;-0.12500103
169;0.47316623;2.8761072;3.0526977;2.5332022;-9.458386;-0.54056;0.012383334;-1.6408583;0.31131434;-0.051583596;-0.1211899;-0.12500103
170;0.47316623;2.8761072;3.0526977;2.5332022;-9.458386;-0.54056;0.36124715;0.08175664;-0.09360735;-0.051583596;-0.1211899;-0.12500103
171;0.47316623;2.8761072;3.0526977;2.5332022;-9.458386;-0.54056;0.36124715;0.08175664;-0.09360735;-0.051583596;-0.1211899;-0.12500103
172;0.47316623;2.8761072;3.0526977;2.5332022;-9.458386;-0.54056;0.36124715;0.08175664;-0.09360735;-0.051583596;-0.1211899;-0.12500103
173;0.47316623;2.8761072;3.0526977;2.5332022;-9.458386;-0.54056;0.36124715;0.08175664;-0.09360735;-0.051583596;-0.1211899;-0.12500103
174;0.61872524;2.7234476;-2.8172827;2.8113205;-9.393631;0.16298175;0.36124715;0.08175664;-0.09360735;-0.28700036;0.041119568;0.1071857
175;0.61872524;2.7234476;-2.8172827;2.8113205;-9.393631;0.16298175;0.36124715;0.08175664;-0.09360735;-0.28700036;0.041119568;0.1071857
176;0.61872524;2.7234476;-2.8172827;2.8113205;-9.393631;0.16298175;1.462565;0.720497;-0.15911919;-0.28700036;0.041119568;0.1071857
177;0.61872524;2.7234476;-2.8172827;2.8113205;-9.393631;0.16298175;1.462565;0.720497;-0.15911919;-0.28700036;0.041119568;0.1071857
178;0.61872524;2.7234476;-2.8172827;2.8113205;-9.393631;0.16298175;1.462565;0.720497;-0.15911919;-0.28700036;0.041119568;0.1071857
179;0.61872524;2.7234476;-2.8172827;2.8113205;-9.393631;0.16298175;1.462565;0.720497;-0.15911919;-0.28700036;0.041119568;0.1071857
180;0.7167984;2.7889194;-2.2652864;2.7970126;-8.874927;3.0956068;1.462565;0.720497;-0.15911919;0.113786355;0.2948564;0.12929413
181;0.7167984;2.7889194;-2.2652864;2.7970126;-8.874927;3.0956068;1.462565;0.720497;-0.15911919;0.113786355;0.2948564;0.12929413
182;0.7167984;2.7889194;-2.2652864;2.7970126;-8.874927;3.0956068;-0.38761166;-0.13941237;-0.2809552;0.113786355;0.2948564;0.12929413
183;0.7167984;2.7889194;-2.2652864;2.7970126;-8.874927;3.0956068;-0.38761166;-0.13941237;-0.2809552;0.113786355;0.2948564;0.12929413
184;0.7167984;2.7889194;-2.2652864;2.7970126;-8.874927;3.0956068;-0.38761166;-0.13941237;-0.2809552;0.113786355;0.2948564;0.12929413
185;0.7167984;2.7889194;-2.2652864;2.7970126;-8.874927;3.0956068;-0.38761166;-0.13941237;-0.2809552;0.113786355;0.2948564;0.12929413
186;0.7424861;2.7450147;-2.2976646;3.336482;-8.926981;2.3124204;-0.38761166;-0.13941237;-0.2809552;0.1299239;0.07429249;-0.18122159
187;0.7424861;2.7450147;-2.2976646;3.336482;-8.926981;2.3124204;-0.38761166;-0.13941237;-0.2809552;0.1299239;0.07429249;-0.18122159
188;0.7424861;2.7450147;-2.2976646;3.336482;-8.926981;2.3124204;-0.20532367;0.32023567;0.45618606;0.1299239;0.07429249;-0.18122159
189;0.7424861;2.7450147;-2.2976646;3.336482;-8.926981;2.3124204;-0.20532367;0.32023567;0.45618606;0.1299239;0.07429249;-0.18122159
190;0.7424861;2.7450147;-2.2976646;3.336482;-8.926981;2.3124204;-0.20532367;0.32023567;0.45618606;0.1299239;0.07429249;-0.18122159
191;0.7424861;2.7450147;-2.2976646;3.336482;-8.926981;2.3124204;-0.20532367;0.32023567;0.45618606;0.1299239;0.07429249;-0.18122159
192;0.59766257;2.8516748;-2.3827753;2.3596973;-9.258539;2.2094514;-0.20532367;0.32023567;0.45618606;-0.02604989;-0.21342812;0.16467603
193;0.59766257;2.8516748;-2.3827753;2.3596973;-9.258539;2.2094514;-0.20532367;0.32023567;0.45618606;-0.02604989;-0.21342812;0.16467603
194;0.59766257;2.8516748;-2.3827753;2.3596973;-9.258539;2.2094514;-0.85218644;-0.15805395;-0.20545682;-0.02604989;-0.21342812;0.16467603
195;0.59766257;2.8516748;-2.3827753;2.3596973;-9.258539;2.2094514;-0.85218644;-0.15805395;-0.20545682;-0.02604989;-0.21342812;0.16467603
196;0.59766257;2.8516748;-2.3827753;2.3596973;-9.258539;2.2094514;-0.85218644;-0.15805395;-0.20545682;-0.02604989;-0.21342812;0.16467603
197;0.59766257;2.8516748;-2.3827753;2.3596973;-9.258539;2.2094514;-0.85218644;-0.15805395;-0.20545682;-0.02604989;-0.21342812;0.16467603
198;0.5861791;2.8051183;-2.718185;2.835278;-9.377861;0.43279755;-0.85218644;-0.15805395;-0.20545682;-0.104219176;0.22022864;-0.063617654
199;0.5861791;2.8051183;-2.718185;2.835278;-9.377861;0.43279755;-0.85218644;-0.15805395;-0.20545682;-0.104219176;0.22022864;-0.063617654
200;0.5861791;2.8051183;-2.718185;2.835278;-9.377861;0.43279755;-0.14953208;-0.17176883;0.21650861;-0.104219176;0.22022864;-0.063617654
201;0.5861791;2.8051183;-2.718185;2.835278;-9.377861;0.43279755;-0.14953208;-0.17176883;0.21650861;-0.104219176;0.22022864;-0.063617654
202;0.5861791;2.8051183;-2.718185;2.835278;-9.377861;0.43279755;-0.14953208;-0.17176883;0.21650861;-0.104219176;0.22022864;-0.063617654
203;0.5861791;2.8051183;-2.718185;2.835278;-9.377861;0.43279755;-0.14953208;-0.17176883;0.21650861;-0.104219176;0.22022864;-0.063617654
204;0.5187278;2.8383179;-2.8572922;2.5207784;-9.476811;0.07813532;-0.14953208;-0.17176883;0.21650861;-0.16027007;-0.031633496;-0.10051183
205;0.5187278;2.8383179;-2.8572922;2.5207784;-9.476811;0.07813532;0.83034915;1.3222204;0.16391273;-0.16027007;-0.031633496;-0.10051183
206;0.5187278;2.8383179;-2.8572922;2.5207784;-9.476811;0.07813532;0.83034915;1.3222204;0.16391273;-0.16027007;-0.031633496;-0.10051183
207;0.5187278;2.8383179;-2.8572922;2.5207784;-9.476811;0.07813532;0.83034915;1.3222204;0.16391273;-0.16027007;-0.031633496;-0.10051183
208;0.5187278;2.8383179;-2.8572922;2.5207784;-9.476811;0.07813532;0.83034915;1.3222204;0.16391273;-0.16027007;-0.031633496;-0.10051183
209;0.5187278;2.8383179;-2.8572922;2.5207784;-9.476811;0.07813532;0.83034915;1.3222204;0.16391273;-0.16027007;-0.031633496;-0.10051183
210;0.5224276;2.8997502;-2.3745544;2.045929;-9.358281;2.0993183;0.83034915;1.3222204;0.16391273;-0.28017977;0.24237423;0.017926257
211;0.5224276;2.8997502;-2.3745544;2.045929;-9.358281;2.0993183;-0.19400556;2.4272666;-0.7532529;-0.28017977;0.24237423;0.017926257
212;0.5224276;2.8997502;-2.3745544;2.045929;-9.358281;2.0993183;-0.19400556;2.4272666;-0.7532529;-0.28017977;0.24237423;0.017926257
213;0.5224276;2.8997502;-2.3745544;2.045929;-9.358281;2.0993183;-0.19400556;2.4272666;-0.7532529;-0.28017977;0.24237423;0.017926257
214;0.5224276;2.8997502;-2.3745544;2.045929;-9.358281;2.0993183;-0.19400556;2.4272666;-0.7532529;-0.28017977;0.24237423;0.017926257
215;0.5224276;2.8997502;-2.3745544;2.045929;-9.358281;2.0993183;-0.19400556;2.4272666;-0.7532529;-0.28017977;0.24237423;0.017926257
216;0.46684456;2.9116628;-1.800709;2.2745156;-9.175231;2.6099994;-0.19400556;2.4272666;-0.7532529;-0.15855272;0.26317668;0.023342952
217;0.46684456;2.9116628;-1.800709;2.2745156;-9.175231;2.6099994;-0.87429;1.7274085;-0.65445256;-0.15855272;0.26317668;0.023342952
218;0.46684456;2.9116628;-1.800709;2.2745156;-9.175231;2.6099994;-0.87429;1.7274085;-0.65445256;-0.15855272;0.26317668;0.023342952
219;0.46684456;2.9116628;-1.800709;2.2745156;-9.175231;2.6099994;-0.87429;1.7274085;-0.65445256;-0.15855272;0.26317668;0.023342952
220;0.46684456;2.9116628;-1.800709;2.2745156;-9.175231;2.6099994;-0.87429;1.7274085;-0.65445256;-0.15855272;0.26317668;0.023342952
221;0.46684456;2.9116628;-1.800709;2.2745156;-9.175231;2.6099994;-0.87429;1.7274085;-0.65445256;-0.15855272;0.26317668;0.023342952
222;0.44200626;2.773016;-0.1708353;2.6174188;-9.276404;1.807715;-0.87429;1.7274085;-0.65445256;0.08429867;0.06890505;0.0126688
223;0.44200626;2.773016;-0.1708353;2.6174188;-9.276404;1.807715;-0.9609733;1.9435177;-0.18322007;0.08429867;0.06890505;0.0126688
224;0.44200626;2.773016;-0.1708353;2.6174188;-9.276404;1.807715;-0.9609733;1.9435177;-0.18322007;0.08429867;0.06890505;0.0126688
225;0.44200626;2.773016;-0.1708353;2.6174188;-9.276404;1.807715;-0.9609733;1.9435177;-0.18322007;0.08429867;0.06890505;0.0126688
226;0.44200626;2.773016;-0.1708353;2.6174188;-9.276404;1.807715;-0.9609733;1.9435177;-0.18322007;0.08429867;0.06890505;0.0126688
227;0.44200626;2.773016;-0.1708353;2.6174188;-9.276404;1.807715;-0.9609733;1.9435177;-0.18322007;0.08429867;0.06890505;0.0126688
228;0.6170988;1.7818257;0.14654437;2.473363;-9.433088;1.0342661;-0.9609733;1.9435177;-0.18322007;-0.15461615;-0.05775544;0.06998054
229;0.6170988;1.7818257;0.14654437;2.473363;-9.433088;1.0342661;-0.7065158;0.12583065;-0.32036883;-0.15461615;-0.05775544;0.06998054
230;0.6170988;1.7818257;0.14654437;2.473363;-9.433088;1.0342661;-0.7065158;0.12583065;-0.32036883;-0.15461615;-0.05775544;0.06998054
231;0.6170988;1.7818257;0.14654437;2.473363;-9.433088;1.0342661;-0.7065158;0.12583065;-0.32036883;-0.15461615;-0.05775544;0.06998054
232;0.6170988;1.7818257;0.14654437;2.473363;-9.433088;1.0342661;-0.7065158;0.12583065;-0.32036883;-0.15461615;-0.05775544;0.06998054
233;0.6170988;1.7818257;0.14654437;2.473363;-9.433088;1.0342661;-0.7065158;0.12583065;-0.32036883;-0.15461615;-0.05775544;0.06998054
234;1.1150519;0.5187499;0.32473755;3.0337813;-9.322391;-0.24411711;-0.7065158;0.12583065;-0.32036883;-0.0058914907;0.014031474;-0.053621672
235;1.1150519;0.5187499;0.32473755;3.0337813;-9.322391;-0.24411711;-0.4342156;0.46390897;0.20612259;-0.0058914907;0.014031474;-0.053621672
236;1.1150519;0.5187499;0.32473755;3.0337813;-9.322391;-0.24411711;-0.4342156;0.46390897;0.20612259;-0.0058914907;0.014031474;-0.053621672
237;1.1150519;0.5187499;0.32473755;3.0337813;-9.322391;-0.24411711;-0.4342156;0.46390897;0.20612259;-0.0058914907;0.014031474;-0.053621672
238;1.1150519;0.5187499;0.32473755;3.0337813;-9.322391;-0.24411711;-0.4342156;0.46390897;0.20612259;-0.0058914907;0.014031474;-0.053621672
239;1.1150519;0.5187499;0.32473755;3.0337813;-9.322391;-0.24411711;-0.4342156;0.46390897;0.20612259;-0.0058914907;0.014031474;-0.053621672
240;1.1392903;0.4163905;0.30910048;2.7473795;-9.38675;-0.71497697;-0.4342156;0.46390897;0.20612259;-0.06526386;-0.13408075;-0.07257889
241;1.1392903;0.4163905;0.30910048;2.7473795;-9.38675;-0.71497697;0.11211578;1.7640259;0.26005;-0.06526386;-0.13408075;-0.07257889
242;1.1392903;0.4163905;0.30910048;2.7473795;-9.38675;-0.71497697;0.11211578;1.7640259;0.26005;-0.06526386;-0.13408075;-0.07257889
243;1.1392903;0.4163905;0.30910048;2.7473795;-9.38675;-0.71497697;0.11211578;1.7640259;0.26005;-0.06526386;-0.13408075;-0.07257889
244;1.1392903;0.4163905;0.30910048;2.7473795;-9.38675;-0.71497697;0.11211578;1.7640259;0.26005;-0.06526386;-0.13408075;-0.07257889
245;1.2292669;0.30492824;0.24626188;2.4616752;-9.486314;0.3469829;0.11211578;1.7640259;0.26005;-0.27291322;0.08616264;0.033176687
246;1.2292669;0.30492824;0.24626188;2.4616752;-9.486314;0.3469829;0.11211578;1.7640259;0.26005;-0.27291322;0.08616264;0.033176687
247;1.2292669;0.30492824;0.24626188;2.4616752;-9.486314;0.3469829;0.38561437;2.3246047;-0.53048605;-0.27291322;0.08616264;0.033176687
248;1.2292669;0.30492824;0.24626188;2.4616752;-9.486314;0.3469829;0.38561437;2.3246047;-0.53048605;-0.27291322;0.08616264;0.033176687
249;1.2292669;0.30492824;0.24626188;2.4616752;-9.486314;0.3469829;0.38561437;2.3246047;-0.53048605;-0.27291322;0.08616264;0.033176687
250;1.2292669;0.30492824;0.24626188;2.4616752;-9.486314;0.3469829;0.38561437;2.3246047;-0.53048605;-0.27291322;0.08616264;0.033176687
251;1.9360448;0.37056947;0.33458352;2.8773131;-9.123293;2.1580052;0.38561437;2.3246047;-0.53048605;-0.04178753;0.24256805;0.030454095
252;1.9360448;0.37056947;0.33458352;2.8773131;-9.123293;2.1580052;0.38561437;2.3246047;-0.53048605;-0.04178753;0.24256805;0.030454095
253;1.9360448;0.37056947;0.33458352;2.8773131;-9.123293;2.1580052;-0.78188103;1.863492;-0.80651456;-0.04178753;0.24256805;0.030454095
254;1.9360448;0.37056947;0.33458352;2.8773131;-9.123293;2.1580052;-0.78188103;1.863492;-0.80651456;-0.04178753;0.24256805;0.030454095
255;1.9360448;0.37056947;0.33458352;2.8773131;-9.123293;2.1580052;-0.78188103;1.863492;-0.80651456;-0.04178753;0.24256805;0.030454095
256;1.9360448;0.37056947;0.33458352;2.8773131;-9.123293;2.1580052;-0.78188103;1.863492;-0.80651456;-0.04178753;0.24256805;0.030454095
257;2.7418418;1.1237218;0.47988948;3.4593773;-8.990026;1.8391672;-0.78188103;1.863492;-0.80651456;0.10897347;0.15831193;0.0022058943
258;2.7418418;1.1237218;0.47988948;3.4593773;-8.990026;1.8391672;-0.78188103;1.863492;-0.80651456;0.10897347;0.15831193;0.0022058943
259;2.7418418;1.1237218;0.47988948;3.4593773;-8.990026;1.8391672;-0.23728065;1.7704173;-0.16657582;0.10897347;0.15831193;0.0022058943
260;2.7418418;1.1237218;0.47988948;3.4593773;-8.990026;1.8391672;-0.23728065;1.7704173;-0.16657582;0.10897347;0.15831193;0.0022058943
261;2.7418418;1.1237218;0.47988948;3.4593773;-8.990026;1.8391672;-0.23728065;1.7704173;-0.16657582;0.10897347;0.15831193;0.0022058943
262;2.7418418;1.1237218;0.47988948;3.4593773;-8.990026;1.8391672;-0.23728065;1.7704173;-0.16657582;0.10897347;0.15831193;0.0022058943
263;-2.954666;2.6587212;0.7044413;3.0022895;-8.958884;2.6258402;-0.23728065;1.7704173;-0.16657582;-0.036799017;-0.09166966;0.07269992
264;-2.954666;2.6587212;0.7044413;3.0022895;-8.958884;2.6258402;-0.23728065;1.7704173;-0.16657582;-0.036799017;-0.09166966;0.07269992
265;-2.954666;2.6587212;0.7044413;3.0022895;-8.958884;2.6258402;-1.1119701;0.5435352;-0.3643097;-0.036799017;-0.09166966;0.07269992
266;-2.954666;2.6587212;0.7044413;3.0022895;-8.958884;2.6258402;-1.1119701;0.5435352;-0.3643097;-0.036799017;-0.09166966;0.07269992
267;-2.954666;2.6587212;0.7044413;3.0022895;-8.958884;2.6258402;-1.1119701;0.5435352;-0.3643097;-0.036799017;-0.09166966;0.07269992
268;-2.954666;2.6587212;0.7044413;3.0022895;-8.958884;2.6258402;-1.1119701;0.5435352;-0.3643097;-0.036799017;-0.09166966;0.07269992
269;-2.5840878;2.7775664;0.6743539;3.420054;-9.153299;0.8311077;-1.1119701;0.5435352;-0.3643097;-0.0086379945;0.23446555;-0.0062156036
270;-2.5840878;2.7775664;0.6743539;3.420054;-9.153299;0.8311077;-1.1119701;0.5435352;-0.3643097;-0.0086379945;0.23446555;-0.0062156036
271;-2.5840878;2.7775664;0.6743539;3.420054;-9.153299;0.8311077;-0.9507205;-0.04420717;0.16883944;-0.0086379945;0.23446555;-0.0062156036
272;-2.5840878;2.7775664;0.6743539;3.420054;-9.153299;0.8311077;-0.9507205;-0.04420717;0.16883944;-0.0086379945;0.23446555;-0.0062156036
273;-2.5840878;2.7775664;0.6743539;3.420054;-9.153299;0.8311077;-0.9507205;-0.04420717;0.16883944;-0.0086379945;0.23446555;-0.0062156036
274;-2.5840878;2.7775664;0.6743539;3.420054;-9.153299;0.8311077;-0.9507205;-0.04420717;0.16883944;-0.0086379945;0.23446555;-0.0062156036
275;-2.5669014;2.8283455;-0.5411181;3.1110933;-9.257749;-0.88632405;-0.9507205;-0.04420717;0.16883944;-0.019085346;-0.10070255;-0.05585391
276;-2.5669014;2.8283455;-0.5411181;3.1110933;-9.257749;-0.88632405;-0.9507205;-0.04420717;0.16883944;-0.019085346;-0.10070255;-0.05585391
277;-2.5669014;2.8283455;-0.5411181;3.1110933;-9.257749;-0.88632405;0.23461758;0.8362079;0.14886631;-0.019085346;-0.10070255;-0.05585391
278;-2.5669014;2.8283455;-0.5411181;3.1110933;-9.257749;-0.88632405;0.23461758;0.8362079;0.14886631;-0.019085346;-0.10070255;-0.05585391
279;-2.5669014;2.8283455;-0.5411181;3.1110933;-9.257749;-0.88632405;0.23461758;0.8362079;0.14886631;-0.019085346;-0.10070255;-0.05585391
280;-2.5669014;2.8283455;-0.5411181;3.1110933;-9.257749;-0.88632405;0.23461758;0.8362079;0.14886631;-0.019085346;-0.10070255;-0.05585391
281;-2.589317;2.8426247;0.87241524;3.0221899;-9.329189;0.054671608;0.23461758;0.8362079;0.14886631;-0.23765285;-0.012015627;0.10104116
282;-2.589317;2.8426247;0.87241524;3.0221899;-9.329189;0.054671608;0.23461758;0.8362079;0.14886631;-0.23765285;-0.012015627;0.10104116
283;-2.589317;2.8426247;0.87241524;3.0221899;-9.329189;0.054671608;1.1268834;1.3396636;-0.4513925;-0.23765285;-0.012015627;0.10104116
284;-2.589317;2.8426247;0.87241524;3.0221899;-9.329189;0.054671608;1.1268834;1.3396636;-0.4513925;-0.23765285;-0.012015627;0.10104116
285;-2.589317;2.8426247;0.87241524;3.0221899;-9.329189;0.054671608;1.1268834;1.3396636;-0.4513925;-0.23765285;-0.012015627;0.10104116
286;-2.589317;2.8426247;0.87241524;3.0221899;-9.329189;0.054671608;1.1268834;1.3396636;-0.4513925;-0.23765285;-0.012015627;0.10104116
287;-2.4671896;2.7765915;2.3294678;3.4098785;-8.751564;2.8201518;1.1268834;1.3396636;-0.4513925;0.10031037;0.27601686;0.08197681
288;-2.4671896;2.7765915;2.3294678;3.4098785;-8.751564;2.8201518;1.1268834;1.3396636;-0.4513925;0.10031037;0.27601686;0.08197681
289;-2.4671896;2.7765915;2.3294678;3.4098785;-8.751564;2.8201518;-0.24021004;0.4438027;-0.4801538;0.10031037;0.27601686;0.08197681
290;-2.4671896;2.7765915;2.3294678;3.4098785;-8.751564;2.8201518;-0.24021004;0.4438027;-0.4801538;0.10031037;0.27601686;0.08197681
291;-2.4671896;2.7765915;2.3294678;3.4098785;-8.751564;2.8201518;-0.24021004;0.4438027;-0.4801538;0.10031037;0.27601686;0.08197681
292;-2.4671896;2.7765915;2.3294678;3.4098785;-8.751564;2.8201518;-0.24021004;0.4438027;-0.4801538;0.10031037;0.27601686;0.08197681
293;-2.4099507;2.6388562;2.8382728;3.8942504;-8.596426;2.6658306;-0.24021004;0.4438027;-0.4801538;0.21142094;0.17533419;-0.06417032
294;-2.4099507;2.6388562;2.8382728;3.8942504;-8.596426;2.6658306;-0.24021004;0.4438027;-0.4801538;0.21142094;0.17533419;-0.06417032
295;-2.4099507;2.6388562;2.8382728;3.8942504;-8.596426;2.6658306;-0.46683836;0.21064983;0.23248711;0.21142094;0.17533419;-0.06417032
296;-2.4099507;2.6388562;2.8382728;3.8942504;-8.596426;2.6658306;-0.46683836;0.21064983;0.23248711;0.21142094;0.17533419;-0.06417032
297;-2.4099507;2.6388562;2.8382728;3.8942504;-8.596426;2.6658306;-0.46683836;0.21064983;0.23248711;0.21142094;0.17533419;-0.06417032
298;-2.4099507;2.6388562;2.8382728;3.8942504;-8.596426;2.6658306;-0.46683836;0.21064983;0.23248711;0.21142094;0.17533419;-0.06417032
299;-2.5158176;2.6037338;3.0683582;3.356061;-8.97414;2.0909452;-0.46683836;0.21064983;0.23248711;-0.008931048;-0.1975449;0.15123126
300;-2.5158176;2.6037338;3.0683582;3.356061;-8.97414;2.0909452;-0.46683836;0.21064983;0.23248711;-0.008931048;-0.1975449;0.15123126
301;-2.5158176;2.6037338;3.0683582;3.356061;-8.97414;2.0909452;-0.27070233;-1.3604357;-0.22676148;-0.008931048;-0.1975449;0.15123126
302;-2.5158176;2.6037338;3.0683582;3.356061;-8.97414;2.0909452;-0.27070233;-1.3604357;-0.22676148;-0.008931048;-0.1975449;0.15123126
303;-2.5158176;2.6037338;3.0683582;3.356061;-8.97414;2.0909452;-0.27070233;-1.3604357;-0.22676148;-0.008931048;-0.1975449;0.15123126
304;-2.5158176;2.6037338;3.0683582;3.356061;-8.97414;2.0909452;-0.27070233;-1.3604357;-0.22676148;-0.008931048;-0.1975449;0.15123126
305;-2.5531466;2.5456803;-2.8137228;4.0814023;-8.901644;0.5227518;-0.27070233;-1.3604357;-0.22676148;0.08295702;0.155046;-0.035195637
306;-2.5531466;2.5456803;-2.8137228;4.0814023;-8.901644;0.5227518;-0.27070233;-1.3604357;-0.22676148;0.08295702;0.155046;-0.035195637
307;-2.5531466;2.5456803;-2.8137228;4.0814023;-8.901644;0.5227518;-0.12090395;-0.9436633;0.2774932;0.08295702;0.155046;-0.035195637
308;-2.5531466;2.5456803;-2.8137228;4.0814023;-8.901644;0.5227518;-0.12090395;-0.9436633;0.2774932;0.08295702;0.155046;-0.035195637
309;-2.5531466;2.5456803;-2.8137228;4.0814023;-8.901644;0.5227518;-0.12090395;-0.9436633;0.2774932;0.08295702;0.155046;-0.035195637
310;-2.5531466;2.5456803;-2.8137228;4.0814023;-8.901644;0.5227518;-0.12090395;-0.9436633;0.2774932;0.08295702;0.155046;-0.035195637
311;-2.5503976;2.752876;-2.6046636;3.6148937;-9.106487;-0.4181207;-0.12090395;-0.9436633;0.2774932;-0.029680584;-0.030945053;-0.07600804
312;-2.5503976;2.752876;-2.6046636;3.6148937;-9.106487;-0.4181207;-0.12090395;-0.9436633;0.2774932;-0.029680584;-0.030945053;-0.07600804
313;-2.5503976;2.752876;-2.6046636;3.6148937;-9.106487;-0.4181207;0.60731596;0.6035877;-0.034087457;-0.029680584;-0.030945053;-0.07600804
314;-2.5503976;2.752876;-2.6046636;3.6148937;-9.106487;-0.4181207;0.60731596;0.6035877;-0.034087457;-0.029680584;-0.030945053;-0.07600804
315;-2.5503976;2.752876;-2.6046636;3.6148937;-9.106487;-0.4181207;0.60731596;0.6035877;-0.034087457;-0.029680584;-0.030945053;-0.07600804
316;-2.5503976;2.752876;-2.6046636;3.6148937;-9.106487;-0.4181207;0.60731596;0.6035877;-0.034087457;-0.029680584;-0.030945053;-0.07600804
317;-2.4897535;2.77142;2.760017;3.6593828;-9.040799;1.0214034;0.60731596;0.6035877;-0.034087457;-0.12134293;0.17019852;0.09389229
318;-2.4897535;2.77142;2.760017;3.6593828;-9.040799;1.0214034;0.60731596;0.6035877;-0.034087457;-0.12134293;0.17019852;0.09389229
319;-2.4897535;2.77142;2.760017;3.6593828;-9.040799;1.0214034;0.9677642;0.49626544;-0.27629483;-0.12134293;0.17019852;0.09389229
320;-2.4897535;2.77142;2.760017;3.6593828;-9.040799;1.0214034;0.9677642;0.49626544;-0.27629483;-0.12134293;0.17019852;0.09389229
321;-2.4897535;2.77142;2.760017;3.6593828;-9.040799;1.0214034;0.9677642;0.49626544;-0.27629483;-0.12134293;0.17019852;0.09389229
322;-2.4897535;2.77142;2.760017;3.6593828;-9.040799;1.0214034;0.9677642;0.49626544;-0.27629483;-0.12134293;0.17019852;0.09389229
323;-2.4041622;2.7122183;2.4907432;3.832797;-8.523963;2.9702058;0.9677642;0.49626544;-0.27629483;0.23125698;0.22949973;0.17102481
324;-2.4041622;2.7122183;2.4907432;3.832797;-8.523963;2.9702058;0.9677642;0.49626544;-0.27629483;0.23125698;0.22949973;0.17102481
325;-2.4041622;2.7122183;2.4907432;3.832797;-8.523963;2.9702058;-0.39466885;-0.329157;-0.20971775;0.23125698;0.22949973;0.17102481
326;-2.4041622;2.7122183;2.4907432;3.832797;-8.523963;2.9702058;-0.39466885;-0.329157;-0.20971775;0.23125698;0.22949973;0.17102481
327;-2.4041622;2.7122183;2.4907432;3.832797;-8.523963;2.9702058;-0.39466885;-0.329157;-0.20971775;0.23125698;0.22949973;0.17102481
328;-2.4041622;2.7122183;2.4907432;3.832797;-8.523963;2.9702058;-0.39466885;-0.329157;-0.20971775;0.23125698;0.22949973;0.17102481
329;-2.3884218;2.678565;2.7315428;4.293811;-8.571354;2.0653014;-0.39466885;-0.329157;-0.20971775;0.1853086;-0.03737115;-0.08765618
330;-2.3884218;2.678565;2.7315428;4.293811;-8.571354;2.0653014;-0.39466885;-0.329157;-0.20971775;0.1853086;-0.03737115;-0.08765618
331;-2.3884218;2.678565;2.7315428;4.293811;-8.571354;2.0653014;-0.20079643;0.092808425;0.45725128;0.1853086;-0.03737115;-0.08765618
332;-2.3884218;2.678565;2.7315428;4.293811;-8.571354;2.0653014;-0.20079643;0.092808425;0.45725128;0.1853086;-0.03737115;-0.08765618
333;-2.3884218;2.678565;2.7315428;4.293811;-8.571354;2.0653014;-0.20079643;0.092808425;0.45725128;0.1853086;-0.03737115;-0.08765618
334;-2.3884218;2.678565;2.7315428;4.293811;-8.571354;2.0653014;-0.20079643;0.092808425;0.45725128;0.1853086;-0.03737115;-0.08765618
335;-2.497375;2.7683208;2.7133315;3.3994799;-9.007333;1.8659816;-0.20079643;0.092808425;0.45725128;0.07594866;-0.18633986;0.1352033
336;-2.497375;2.7683208;2.7133315;3.3994799;-9.007333;1.8659816;-0.20079643;0.092808425;0.45725128;0.07594866;-0.18633986;0.1352033
337;-2.497375;2.7683208;2.7133315;3.3994799;-9.007333;1.8659816;-0.5448667;-0.6328816;-0.24167474;0.07594866;-0.18633986;0.1352033
338;-2.497375;2.7683208;2.7133315;3.3994799;-9.007333;1.8659816;-0.5448667;-0.6328816;-0.24167474;0.07594866;-0.18633986;0.1352033
339;-2.497375;2.7683208;2.7133315;3.3994799;-9.007333;1.8659816;-0.5448667;-0.6328816;-0.24167474;0.07594866;-0.18633986;0.1352033
340;-2.497375;2.7683208;2.7133315;3.3994799;-9.007333;1.8659816;-0.5448667;-0.6328816;-0.24167474;0.07594866;-0.18633986;0.1352033
341;-2.471897;2.7315025;-2.9144516;3.9694898;-8.960171;0.35901237;-0.5448667;-0.6328816;-0.24167474;0.022685977;0.14527786;-0.029003946
342;-2.471897;2.7315025;-2.9144516;3.9694898;-8.960171;0.35901237;-0.5448667;-0.6328816;-0.24167474;0.022685977;0.14527786;-0.029003946
343;-2.471897;2.7315025;-2.9144516;3.9694898;-8.960171;0.35901237;-0.19147563;-0.6914694;0.23381865;0.022685977;0.14527786;-0.029003946
344;-2.471897;2.7315025;-2.9144516;3.9694898;-8.960171;0.35901237;-0.19147563;-0.6914694;0.23381865;0.022685977;0.14527786;-0.029003946
345;-2.471897;2.7315025;-2.9144516;3.9694898;-8.960171;0.35901237;-0.19147563;-0.6914694;0.23381865;0.022685977;0.14527786;-0.029003946
346;-2.471897;2.7315025;-2.9144516;3.9694898;-8.960171;0.35901237;-0.19147563;-0.6914694;0.23381865;0.022685977;0.14527786;-0.029003946
347;-2.5248446;2.7877362;-2.3821788;3.5613832;-9.124877;-0.47280768;-0.19147563;-0.6914694;0.23381865;-0.04112876;-0.07590505;-0.07369608
348;-2.5248446;2.7877362;-2.3821788;3.5613832;-9.124877;-0.47280768;-0.19147563;-0.6914694;0.23381865;-0.04112876;-0.07590505;-0.07369608
349;-2.5248446;2.7877362;-2.3821788;3.5613832;-9.124877;-0.47280768;0.16724159;0.5665708;0.13155627;-0.04112876;-0.07590505;-0.07369608
350;-2.5248446;2.7877362;-2.3821788;3.5613832;-9.124877;-0.47280768;0.16724159;0.5665708;0.13155627;-0.04112876;-0.07590505;-0.07369608
351;-2.5248446;2.7877362;-2.3821788;3.5613832;-9.124877;-0.47280768;0.16724159;0.5665708;0.13155627;-0.04112876;-0.07590505;-0.07369608
352;-2.5248446;2.7877362;-2.3821788;3.5613832;-9.124877;-0.47280768;0.16724159;0.5665708;0.13155627;-0.04112876;-0.07590505;-0.07369608
353;-2.5317101;2.8053925;2.6896734;3.4234924;-9.18789;0.18099576;0.16724159;0.5665708;0.13155627;-0.22307776;0.06557927;0.06564652
354;-2.5317101;2.8053925;2.6896734;3.4234924;-9.18789;0.18099576;0.16724159;0.5665708;0.13155627;-0.22307776;0.06557927;0.06564652
355;-2.5317101;2.8053925;2.6896734;3.4234924;-9.18789;0.18099576;1.243127;0.9326115;-0.37749195;-0.22307776;0.06557927;0.06564652
356;-2.5317101;2.8053925;2.6896734;3.4234924;-9.18789;0.18099576;1.243127;0.9326115;-0.37749195;-0.22307776;0.06557927;0.06564652
357;-2.5317101;2.8053925;2.6896734;3.4234924;-9.18789;0.18099576;1.243127;0.9326115;-0.37749195;-0.22307776;0.06557927;0.06564652
358;-2.5317101;2.8053925;2.6896734;3.4234924;-9.18789;0.18099576;1.243127;0.9326115;-0.37749195;-0.22307776;0.06557927;0.06564652
359;-2.4281244;2.7482202;2.3035138;3.7103357;-8.590272;2.9344535;1.243127;0.9326115;-0.37749195;0.19561806;0.24195431;0.15608391
360;-2.4281244;2.7482202;2.3035138;3.7103357;-8.590272;2.9344535;1.243127;0.9326115;-0.37749195;0.19561806;0.24195431;0.15608391
361;-2.4281244;2.7482202;2.3035138;3.7103357;-8.590272;2.9344535;-0.15738818;0.2740312;-0.31996936;0.19561806;0.24195431;0.15608391
362;-2.4281244;2.7482202;2.3035138;3.7103357;-8.590272;2.9344535;-0.15738818;0.2740312;-0.31996936;0.19561806;0.24195431;0.15608391
363;-2.4281244;2.7482202;2.3035138;3.7103357;-8.590272;2.9344535;-0.15738818;0.2740312;-0.31996936;0.19561806;0.24195431;0.15608391
364;-2.4281244;2.7482202;2.3035138;3.7103357;-8.590272;2.9344535;-0.15738818;0.2740312;-0.31996936;0.19561806;0.24195431;0.15608391
365;-2.3849378;2.6850243;2.567491;4.033636;-8.461424;2.8817472;-0.15738818;0.2740312;-0.31996936;0.1645381;0.05473315;-0.12808613
366;-2.3849378;2.6850243;2.567491;4.033636;-8.461424;2.8817472;-0.15738818;0.2740312;-0.31996936;0.1645381;0.05473315;-0.12808613
367;-2.3849378;2.6850243;2.567491;4.033636;-8.461424;2.8817472;-0.73261404;0.215976;-0.098534055;0.1645381;0.05473315;-0.12808613
368;-2.3849378;2.6850243;2.567491;4.033636;-8.461424;2.8817472;-0.73261404;0.215976;-0.098534055;0.1645381;0.05473315;-0.12808613
369;-2.3849378;2.6850243;2.567491;4.033636;-8.461424;2.8817472;-0.73261404;0.215976;-0.098534055;0.1645381;0.05473315;-0.12808613
370;-2.3849378;2.6850243;2.567491;4.033636;-8.461424;2.8817472;-0.73261404;0.215976;-0.098534055;0.1645381;0.05473315;-0.12808613
371;-2.42748;2.6736898;2.9317827;4.020272;-8.73992;1.9030529;-0.73261404;0.215976;-0.098534055;0.17250976;-0.17910044;-0.02440959
372;-2.42748;2.6736898;2.9317827;4.020272;-8.73992;1.9030529;-0.73261404;0.215976;-0.098534055;0.17250976;-0.17910044;-0.02440959
373;-2.42748;2.6736898;2.9317827;4.020272;-8.73992;1.9030529;-0.066843376;-1.1907973;0.1532604;0.17250976;-0.17910044;-0.02440959
374;-2.42748;2.6736898;2.9317827;4.020272;-8.73992;1.9030529;-0.066843376;-1.1907973;0.1532604;0.17250976;-0.17910044;-0.02440959
375;-2.42748;2.6736898;2.9317827;4.020272;-8.73992;1.9030529;-0.066843376;-1.1907973;0.1532604;0.17250976;-0.17910044;-0.02440959
376;-2.42748;2.6736898;2.9317827;4.020272;-8.73992;1.9030529;-0.066843376;-1.1907973;0.1532604;0.17250976;-0.17910044;-0.02440959
377;-2.4971666;2.6475568;-2.9216456;3.9998214;-8.922596;0.74772865;-0.066843376;-1.1907973;0.1532604;0.016201818;0.1386408;0.23517326
378;-2.4971666;2.6475568;-2.9216456;3.9998214;-8.922596;0.74772865;-0.066843376;-1.1907973;0.1532604;0.016201818;0.1386408;0.23517326
379;-2.4971666;2.6475568;-2.9216456;3.9998214;-8.922596;0.74772865;-0.14007814;-0.8318138;0.26830557;0.016201818;0.1386408;0.23517326
380;-2.4971666;2.6475568;-2.9216456;3.9998214;-8.922596;0.74772865;-0.14007814;-0.8318138;0.26830557;0.016201818;0.1386408;0.23517326
381;-2.4971666;2.6475568;-2.9216456;3.9998214;-8.922596;0.74772865;-0.14007814;-0.8318138;0.26830557;0.016201818;0.1386408;0.23517326
382;-2.4971666;2.6475568;-2.9216456;3.9998214;-8.922596;0.74772865;-0.14007814;-0.8318138;0.26830557;0.016201818;0.1386408;0.23517326
383;-2.521323;2.778488;-2.711951;3.590978;-9.1251745;-0.08032648;-0.14007814;-0.8318138;0.26830557;-0.010169828;-0.114822604;-0.08933731
384;-2.521323;2.778488;-2.711951;3.590978;-9.1251745;-0.08032648;-0.14007814;-0.8318138;0.26830557;-0.010169828;-0.114822604;-0.08933731
385;-2.521323;2.778488;-2.711951;3.590978;-9.1251745;-0.08032648;0.07589785;0.20865251;-0.08055825;-0.010169828;-0.114822604;-0.08933731
386;-2.521323;2.778488;-2.711951;3.590978;-9.1251745;-0.08032648;0.07589785;0.20865251;-0.08055825;-0.010169828;-0.114822604;-0.08933731
387;-2.521323;2.778488;-2.711951;3.590978;-9.1251745;-0.08032648;0.07589785;0.20865251;-0.08055825;-0.010169828;-0.114822604;-0.08933731
388;-2.521323;2.778488;-2.711951;3.590978;-9.1251745;-0.08032648;0.07589785;0.20865251;-0.08055825;-0.010169828;-0.114822604;-0.08933731
389;-2.4821613;2.771761;2.6314688;3.7984571;-9.03926;0.18410869;0.07589785;0.20865251;-0.08055825;-0.18504873;0.04733939;0.0768712
390;-2.4821613;2.771761;2.6314688;3.7984571;-9.03926;0.18410869;0.07589785;0.20865251;-0.08055825;-0.18504873;0.04733939;0.0768712
391;-2.4821613;2.771761;2.6314688;3.7984571;-9.03926;0.18410869;1.4828044;0.056191042;-0.04394086;-0.18504873;0.04733939;0.0768712
392;-2.4821613;2.771761;2.6314688;3.7984571;-9.03926;0.18410869;1.4828044;0.056191042;-0.04394086;-0.18504873;0.04733939;0.0768712
393;-2.4821613;2.771761;2.6314688;3.7984571;-9.03926;0.18410869;1.4828044;0.056191042;-0.04394086;-0.18504873;0.04733939;0.0768712
394;-2.4821613;2.771761;2.6314688;3.7984571;-9.03926;0.18410869;1.4828044;0.056191042;-0.04394086;-0.18504873;0.04733939;0.0768712
395;-2.442306;2.7608702;2.180037;3.7190197;-8.655598;2.7239525;1.4828044;0.056191042;-0.04394086;0.30027553;0.22550227;0.20303531
396;-2.442306;2.7608702;2.180037;3.7190197;-8.655598;2.7239525;1.4828044;0.056191042;-0.04394086;0.30027553;0.22550227;0.20303531
397;-2.442306;2.7608702;2.180037;3.7190197;-8.655598;2.7239525;-0.24899822;-0.4171719;-0.23501703;0.30027553;0.22550227;0.20303531
398;-2.442306;2.7608702;2.180037;3.7190197;-8.655598;2.7239525;-0.24899822;-0.4171719;-0.23501703;0.30027553;0.22550227;0.20303531
399;-2.442306;2.7608702;2.180037;3.7190197;-8.655598;2.7239525;-0.24899822;-0.4171719;-0.23501703;0.30027553;0.22550227;0.20303531
400;-2.442306;2.7608702;2.180037;3.7190197;-8.655598;2.7239525;-0.24899822;-0.4171719;-0.23501703;0.30027553;0.22550227;0.20303531
401;-2.4207199;2.7316105;1.6725576;4.258066;-8.612695;1.9648795;-0.24899822;-0.4171719;-0.23501703;0.21893282;0.038397226;-0.07387369
402;-2.4207199;2.7316105;1.6725576;4.258066;-8.612695;1.9648795;-0.24899822;-0.4171719;-0.23501703;0.21893282;0.038397226;-0.07387369
403;-2.4207199;2.7316105;1.6725576;4.258066;-8.612695;1.9648795;-0.023435127;-0.7660357;0.08894696;0.21893282;0.038397226;-0.07387369
404;-2.4207199;2.7316105;1.6725576;4.258066;-8.612695;1.9648795;-0.023435127;-0.7660357;0.08894696;0.21893282;0.038397226;-0.07387369
405;-2.4207199;2.7316105;1.6725576;4.258066;-8.612695;1.9648795;-0.023435127;-0.7660357;0.08894696;0.21893282;0.038397226;-0.07387369
406;-2.4207199;2.7316105;1.6725576;4.258066;-8.612695;1.9648795;-0.023435127;-0.7660357;0.08894696;0.21893282;0.038397226;-0.07387369
407;-2.4359586;2.7307682;1.3433447;4.2573886;-8.722535;1.4008645;-0.023435127;-0.7660357;0.08894696;0.16736582;-0.2776287;0.060823325
408;-2.4359586;2.7307682;1.3433447;4.2573886;-8.722535;1.4008645;-0.023435127;-0.7660357;0.08894696;0.16736582;-0.2776287;0.060823325
409;-2.4359586;2.7307682;1.3433447;4.2573886;-8.722535;1.4008645;-0.32875755;-0.9375382;0.080691405;0.16736582;-0.2776287;0.060823325
410;-2.4359586;2.7307682;1.3433447;4.2573886;-8.722535;1.4008645;-0.32875755;-0.9375382;0.080691405;0.16736582;-0.2776287;0.060823325
411;-2.4359586;2.7307682;1.3433447;4.2573886;-8.722535;1.4008645;-0.32875755;-0.9375382;0.080691405;0.16736582;-0.2776287;0.060823325
412;-2.4359586;2.7307682;1.3433447;4.2573886;-8.722535;1.4008645;-0.32875755;-0.9375382;0.080691405;0.16736582;-0.2776287;0.060823325
413;-2.4620245;2.691736;0.43861163;4.238409;-8.843406;-0.021333816;-0.32875755;-0.9375382;0.080691405;0.01277695;0.102091685;0.0666245
414;-2.4620245;2.691736;0.43861163;4.238409;-8.843406;-0.021333816;-0.32875755;-0.9375382;0.080691405;0.01277695;0.102091685;0.0666245
415;-2.4620245;2.691736;0.43861163;4.238409;-8.843406;-0.021333816;0.38787797;-1.6899922;0.21104929;0.01277695;0.102091685;0.0666245
416;-2.4620245;2.691736;0.43861163;4.238409;-8.843406;-0.021333816;0.38787797;-1.6899922;0.21104929;0.01277695;0.102091685;0.0666245
417;-2.4620245;2.691736;0.43861163;4.238409;-8.843406;-0.021333816;0.38787797;-1.6899922;0.21104929;0.01277695;0.102091685;0.0666245
418;-2.4620245;2.691736;0.43861163;4.238409;-8.843406;-0.021333816;0.38787797;-1.6899922;0.21104929;0.01277695;0.102091685;0.0666245
419;-2.5511408;2.6561496;0.24163501;3.6947136;-9.064216;-0.59957635;0.38787797;-1.6899922;0.21104929;0.069969654;-0.15359583;-0.04961235
420;-2.5511408;2.6561496;0.24163501;3.6947136;-9.064216;-0.59957635;0.22329947;-1.081611;0.12409965;0.069969654;-0.15359583;-0.04961235
421;-2.5511408;2.6561496;0.24163501;3.6947136;-9.064216;-0.59957635;0.22329947;-1.081611;0.12409965;0.069969654;-0.15359583;-0.04961235
422;-2.5511408;2.6561496;0.24163501;3.6947136;-9.064216;-0.59957635;0.22329947;-1.081611;0.12409965;0.069969654;-0.15359583;-0.04961235
423;-2.5511408;2.6561496;0.24163501;3.6947136;-9.064216;-0.59957635;0.22329947;-1.081611;0.12409965;0.069969654;-0.15359583;-0.04961235
424;-2.5511408;2.6561496;0.24163501;3.6947136;-9.064216;-0.59957635;0.22329947;-1.081611;0.12409965;0.069969654;-0.15359583;-0.04961235
425;-2.790576;1.9984666;0.25006336;3.3525155;-9.173296;-0.88411343;0.22329947;-1.081611;0.12409965;-0.114466965;-0.12200294;0.021420244
426;-2.790576;1.9984666;0.25006336;3.3525155;-9.173296;-0.88411343;0.22329947;-1.081611;0.12409965;-0.114466965;-0.12200294;0.021420244
427;-2.790576;1.9984666;0.25006336;3.3525155;-9.173296;-0.88411343;1.6576357;0.14726846;-0.11597724;-0.114466965;-0.12200294;0.021420244
428;-2.790576;1.9984666;0.25006336;3.3525155;-9.173296;-0.88411343;1.6576357;0.14726846;-0.11597724;-0.114466965;-0.12200294;0.021420244
429;-2.790576;1.9984666;0.25006336;3.3525155;-9.173296;-0.88411343;1.6576357;0.14726846;-0.11597724;-0.114466965;-0.12200294;0.021420244
430;-2.790576;1.9984666;0.25006336;3.3525155;-9.173296;-0.88411343;1.6576357;0.14726846;-0.11597724;-0.114466965;-0.12200294;0.021420244
431;2.9841475;1.7828763;0.53897643;3.4288108;-8.936276;2.1346245;1.6576357;0.14726846;-0.11597724;0.08262776;0.16042623;0.1791115
432;2.9841475;1.7828763;0.53897643;3.4288108;-8.936276;2.1346245;0.2275604;0.36710593;-0.10119714;0.08262776;0.16042623;0.1791115
433;2.9841475;1.7828763;0.53897643;3.4288108;-8.936276;2.1346245;0.2275604;0.36710593;-0.10119714;0.08262776;0.16042623;0.1791115
434;2.9841475;1.7828763;0.53897643;3.4288108;-8.936276;2.1346245;0.2275604;0.36710593;-0.10119714;0.08262776;0.16042623;0.1791115
435;2.9841475;1.7828763;0.53897643;3.4288108;-8.936276;2.1346245;0.2275604;0.36710593;-0.10119714;0.08262776;0.16042623;0.1791115
436;2.9841475;1.7828763;0.53897643;3.4288108;-8.936276;2.1346245;0.2275604;0.36710593;-0.10119714;0.08262776;0.16042623;0.1791115
437;2.7119927;1.2692078;0.5355399;3.4020145;-8.793197;2.6974752;0.2275604;0.36710593;-0.10119714;0.059942756;0.21507844;-0.054989967
438;2.7119927;1.2692078;0.5355399;3.4020145;-8.793197;2.6974752;-0.29533586;-0.58095145;-0.05059857;0.059942756;0.21507844;-0.054989967
439;2.7119927;1.2692078;0.5355399;3.4020145;-8.793197;2.6974752;-0.29533586;-0.58095145;-0.05059857;0.059942756;0.21507844;-0.054989967
440;2.7119927;1.2692078;0.5355399;3.4020145;-8.793197;2.6974752;-0.29533586;-0.58095145;-0.05059857;0.059942756;0.21507844;-0.054989967
441;2.7119927;1.2692078;0.5355399;3.4020145;-8.793197;2.6974752;-0.29533586;-0.58095145;-0.05059857;0.059942756;0.21507844;-0.054989967
442;2.7119927;1.2692078;0.5355399;3.4020145;-8.793197;2.6974752;-0.29533586;-0.58095145;-0.05059857;0.059942756;0.21507844;-0.054989967
443;2.8528686;1.4437125;0.52552956;3.7160678;-8.8756;1.8933933;-0.29533586;-0.58095145;-0.05059857;0.06720562;-0.25930867;-0.029252525
444;2.8528686;1.4437125;0.52552956;3.7160678;-8.8756;1.8933933;-0.5950658;-1.1194267;0.3517932;0.06720562;-0.25930867;-0.029252525
445;2.8528686;1.4437125;0.52552956;3.7160678;-8.8756;1.8933933;-0.5950658;-1.1194267;0.3517932;0.06720562;-0.25930867;-0.029252525
446;2.8528686;1.4437125;0.52552956;3.7160678;-8.8756;1.8933933;-0.5950658;-1.1194267;0.3517932;0.06720562;-0.25930867;-0.029252525
447;2.8528686;1.4437125;0.52552956;3.7160678;-8.8756;1.8933933;-0.5950658;-1.1194267;0.3517932;0.06720562;-0.25930867;-0.029252525
448;2.8528686;1.4437125;0.52552956;3.7160678;-8.8756;1.8933933;-0.5950658;-1.1194267;0.3517932;0.06720562;-0.25930867;-0.029252525
449;2.8000736;0.76592416;0.33858585;3.2742;-9.243864;-0.031648356;-0.5950658;-1.1194267;0.3517932;0.015140916;0.1143406;0.08201667
450;2.8000736;0.76592416;0.33858585;3.2742;-9.243864;-0.031648356;0.06391398;-1.1529816;0.12343387;0.015140916;0.1143406;0.08201667
451;2.8000736;0.76592416;0.33858585;3.2742;-9.243864;-0.031648356;0.06391398;-1.1529816;0.12343387;0.015140916;0.1143406;0.08201667
452;2.8000736;0.76592416;0.33858585;3.2742;-9.243864;-0.031648356;0.06391398;-1.1529816;0.12343387;0.015140916;0.1143406;0.08201667
453;2.8000736;0.76592416;0.33858585;3.2742;-9.243864;-0.031648356;0.06391398;-1.1529816;0.12343387;0.015140916;0.1143406;0.08201667
454;2.8000736;0.76592416;0.33858585;3.2742;-9.243864;-0.031648356;0.06391398;-1.1529816;0.12343387;0.015140916;0.1143406;0.08201667
455;2.3671842;0.44855967;0.28867066;2.9720094;-9.32984;-0.54004526;0.06391398;-1.1529816;0.12343387;-0.022571798;-0.16405468;-0.090651944
456;2.3671842;0.44855967;0.28867066;2.9720094;-9.32984;-0.54004526;0.29799893;-0.7224943;0.18508424;-0.022571798;-0.16405468;-0.090651944
457;2.3671842;0.44855967;0.28867066;2.9720094;-9.32984;-0.54004526;0.29799893;-0.7224943;0.18508424;-0.022571798;-0.16405468;-0.090651944
458;2.3671842;0.44855967;0.28867066;2.9720094;-9.32984;-0.54004526;0.29799893;-0.7224943;0.18508424;-0.022571798;-0.16405468;-0.090651944
459;2.3671842;0.44855967;0.28867066;2.9720094;-9.32984;-0.54004526;0.29799893;-0.7224943;0.18508424;-0.022571798;-0.16405468;-0.090651944
460;2.3671842;0.44855967;0.28867066;2.9720094;-9.32984;-0.54004526;0.29799893;-0.7224943;0.18508424;-0.022571798;-0.16405468;-0.090651944
461;1.8092868;0.31304872;0.26864478;2.6397321;-9.439145;-0.32361305;0.29799893;-0.7224943;0.18508424;-0.19228822;-0.116848834;0.006860525
462;1.8092868;0.31304872;0.26864478;2.6397321;-9.439145;-0.32361305;1.4640297;0.8459282;-0.22010377;-0.19228822;-0.116848834;0.006860525
463;1.8092868;0.31304872;0.26864478;2.6397321;-9.439145;-0.32361305;1.4640297;0.8459282;-0.22010377;-0.19228822;-0.116848834;0.006860525
464;1.8092868;0.31304872;0.26864478;2.6397321;-9.439145;-0.32361305;1.4640297;0.8459282;-0.22010377;-0.19228822;-0.116848834;0.006860525
465;1.8092868;0.31304872;0.26864478;2.6397321;-9.439145;-0.32361305;1.4640297;0.8459282;-0.22010377;-0.19228822;-0.116848834;0.006860525
466;1.8092868;0.31304872;0.26864478;2.6397321;-9.439145;-0.32361305;1.4640297;0.8459282;-0.22010377;-0.19228822;-0.116848834;0.006860525
467;1.681499;0.32934916;0.2934166;2.7877245;-9.007768;2.6942697;1.4640297;0.8459282;-0.22010377;-0.01999926;0.27001292;0.17690736
468;1.681499;0.32934916;0.2934166;2.7877245;-9.007768;2.6942697;-0.012782796;0.42076704;-0.15552402;-0.01999926;0.27001292;0.17690736
469;1.681499;0.32934916;0.2934166;2.7877245;-9.007768;2.6942697;-0.012782796;0.42076704;-0.15552402;-0.01999926;0.27001292;0.17690736
470;1.681499;0.32934916;0.2934166;2.7877245;-9.007768;2.6942697;-0.012782796;0.42076704;-0.15552402;-0.01999926;0.27001292;0.17690736
471;1.681499;0.32934916;0.2934166;2.7877245;-9.007768;2.6942697;-0.012782796;0.42076704;-0.15552402;-0.01999926;0.27001292;0.17690736
472;1.681499;0.32934916;0.2934166;2.7877245;-9.007768;2.6942697;-0.012782796;0.42076704;-0.15552402;-0.01999926;0.27001292;0.17690736
473;1.8324373;0.3437768;0.31899235;2.8033357;-8.9561205;2.8459785;-0.012782796;0.42076704;-0.15552402;0.07525739;0.18415904;-0.15279917
474;1.8324373;0.3437768;0.31899235;2.8033357;-8.9561205;2.8459785;-0.44593316;0.18335323;0.20425843;0.07525739;0.18415904;-0.15279917
475;1.8324373;0.3437768;0.31899235;2.8033357;-8.9561205;2.8459785;-0.44593316;0.18335323;0.20425843;0.07525739;0.18415904;-0.15279917
476;1.8324373;0.3437768;0.31899235;2.8033357;-8.9561205;2.8459785;-0.44593316;0.18335323;0.20425843;0.07525739;0.18415904;-0.15279917
477;1.8324373;0.3437768;0.31899235;2.8033357;-8.9561205;2.8459785;-0.44593316;0.18335323;0.20425843;0.07525739;0.18415904;-0.15279917
478;1.8324373;0.3437768;0.31899235;2.8033357;-8.9561205;2.8459785;-0.44593316;0.18335323;0.20425843;0.07525739;0.18415904;-0.15279917
479;2.0094674;0.2913097;0.28483802;2.3598957;-9.247585;2.2546499;-0.44593316;0.18335323;0.20425843;-0.09196903;-0.27988932;0.10656654
480;2.0094674;0.2913097;0.28483802;2.3598957;-9.247585;2.2546499;-0.847526;-0.38641328;-0.08788172;-0.09196903;-0.27988932;0.10656654
481;2.0094674;0.2913097;0.28483802;2.3598957;-9.247585;2.2546499;-0.847526;-0.38641328;-0.08788172;-0.09196903;-0.27988932;0.10656654
482;2.0094674;0.2913097;0.28483802;2.3598957;-9.247585;2.2546499;-0.847526;-0.38641328;-0.08788172;-0.09196903;-0.27988932;0.10656654
483;2.0094674;0.2913097;0.28483802;2.3598957;-9.247585;2.2546499;-0.847526;-0.38641328;-0.08788172;-0.09196903;-0.27988932;0.10656654
484;2.0094674;0.2913097;0.28483802;2.3598957;-9.247585;2.2546499;-0.847526;-0.38641328;-0.08788172;-0.09196903;-0.27988932;0.10656654
485;2.0250416;0.3377534;0.28305185;2.663225;-9.430316;0.38308638;-0.847526;-0.38641328;-0.08788172;-0.07346033;0.20577547;-0.062294178
486;2.0250416;0.3377534;0.28305185;2.663225;-9.430316;0.38308638;-0.33501577;-0.6456644;0.32556185;-0.07346033;0.20577547;-0.062294178
487;2.0250416;0.3377534;0.28305185;2.663225;-9.430316;0.38308638;-0.33501577;-0.6456644;0.32556185;-0.07346033;0.20577547;-0.062294178
488;2.0250416;0.3377534;0.28305185;2.663225;-9.430316;0.38308638;-0.33501577;-0.6456644;0.32556185;-0.07346033;0.20577547;-0.062294178
489;2.0250416;0.3377534;0.28305185;2.663225;-9.430316;0.38308638;-0.33501577;-0.6456644;0.32556185;-0.07346033;0.20577547;-0.062294178
490;2.0010283;0.24342266;0.2075757;2.1015124;-9.565326;-0.5085062;-0.33501577;-0.6456644;0.32556185;-0.13720648;-0.09880613;-0.11865477
491;2.0010283;0.24342266;0.2075757;2.1015124;-9.565326;-0.5085062;-0.33501577;-0.6456644;0.32556185;-0.13720648;-0.09880613;-0.11865477
492;2.0010283;0.24342266;0.2075757;2.1015124;-9.565326;-0.5085062;0.43408245;1.2959892;-0.032889068;-0.13720648;-0.09880613;-0.11865477
493;2.0010283;0.24342266;0.2075757;2.1015124;-9.565326;-0.5085062;0.43408245;1.2959892;-0.032889068;-0.13720648;-0.09880613;-0.11865477
494;2.0010283;0.24342266;0.2075757;2.1015124;-9.565326;-0.5085062;0.43408245;1.2959892;-0.032889068;-0.13720648;-0.09880613;-0.11865477
495;2.0010283;0.24342266;0.2075757;2.1015124;-9.565326;-0.5085062;0.43408245;1.2959892;-0.032889068;-0.13720648;-0.09880613;-0.11865477
496;2.0010283;0.24342266;0.2075757;2.1015124;-9.565326;-0.5085062;0.43408245;1.2959892;-0.032889068;-0.13720648;-0.09880613;-0.11865477
497;1.7635925;0.25673926;0.23899737;2.2652004;-9.510269;0.7707378;0.43408245;1.2959892;-0.032889068;-0.30683255;0.16059461;0.061763387
498;1.7635925;0.25673926;0.23899737;2.2652004;-9.510269;0.7707378;0.8868065;1.0376701;-0.5387416;-0.30683255;0.16059461;0.061763387
499;1.7635925;0.25673926;0.23899737;2.2652004;-9.510269;0.7707378;0.8868065;1.0376701;-0.5387416;-0.30683255;0.16059461;0.061763387
500;1.7635925;0.25673926;0.23899737;2.2652004;-9.510269;0.7707378;0.8868065;1.0376701;-0.5387416;-0.30683255;0.16059461;0.061763387
501;1.7635925;0.25673926;0.23899737;2.2652004;-9.510269;0.7707378;0.8868065;1.0376701;-0.5387416;-0.30683255;0.16059461;0.061763387
502;1.7635925;0.25673926;0.23899737;2.2652004;-9.510269;0.7707378;0.8868065;1.0376701;-0.5387416;-0.30683255;0.16059461;0.061763387
503;2.260643;0.48120198;0.3993891;2.8688133;-8.944987;2.815584;0.8868065;1.0376701;-0.5387416;0.057713673;0.21836579;0.06421096
504;2.260643;0.48120198;0.3993891;2.8688133;-8.944987;2.815584;-0.6649717;0.09320789;-0.26311255;0.057713673;0.21836579;0.06421096
505;2.260643;0.48120198;0.3993891;2.8688133;-8.944987;2.815584;-0.6649717;0.09320789;-0.26311255;0.057713673;0.21836579;0.06421096
506;2.260643;0.48120198;0.3993891;2.8688133;-8.944987;2.815584;-0.6649717;0.09320789;-0.26311255;0.057713673;0.21836579;0.06421096
507;2.260643;0.48120198;0.3993891;2.8688133;-8.944987;2.815584;-0.6649717;0.09320789;-0.26311255;0.057713673;0.21836579;0.06421096
508;2.260643;0.48120198;0.3993891;2.8688133;-8.944987;2.815584;-0.6649717;0.09320789;-0.26311255;0.057713673;0.21836579;0.06421096
509;2.540228;0.73456967;0.42390853;3.2246692;-9.099991;1.7210667;-0.6649717;0.09320789;-0.26311255;0.1423638;-0.060216777;-0.11664321
510;2.540228;0.73456967;0.42390853;3.2246692;-9.099991;1.7210667;-0.54593194;-0.074433155;0.25578907;0.1423638;-0.060216777;-0.11664321
511;2.540228;0.73456967;0.42390853;3.2246692;-9.099991;1.7210667;-0.54593194;-0.074433155;0.25578907;0.1423638;-0.060216777;-0.11664321
512;2.540228;0.73456967;0.42390853;3.2246692;-9.099991;1.7210667;-0.54593194;-0.074433155;0.25578907;0.1423638;-0.060216777;-0.11664321
513;2.540228;0.73456967;0.42390853;3.2246692;-9.099991;1.7210667;-0.54593194;-0.074433155;0.25578907;0.1423638;-0.060216777;-0.11664321
514;2.540228;0.73456967;0.42390853;3.2246692;-9.099991;1.7210667;-0.54593194;-0.074433155;0.25578907;0.1423638;-0.060216777;-0.11664321
515;2.790234;0.67522085;0.32804915;2.762681;-9.382336;0.7139729;-0.54593194;-0.074433155;0.25578907;-0.016989935;-0.08162391;0.09022925
516;2.790234;0.67522085;0.32804915;2.762681;-9.382336;0.7139729;-0.42982152;-0.7504567;-0.16191542;-0.016989935;-0.08162391;0.09022925
517;2.790234;0.67522085;0.32804915;2.762681;-9.382336;0.7139729;-0.42982152;-0.7504567;-0.16191542;-0.016989935;-0.08162391;0.09022925
518;2.790234;0.67522085;0.32804915;2.762681;-9.382336;0.7139729;-0.42982152;-0.7504567;-0.16191542;-0.016989935;-0.08162391;0.09022925
519;2.790234;0.67522085;0.32804915;2.762681;-9.382336;0.7139729;-0.42982152;-0.7504567;-0.16191542;-0.016989935;-0.08162391;0.09022925
520;2.790234;0.67522085;0.32804915;2.762681;-9.382336;0.7139729;-0.42982152;-0.7504567;-0.16191542;-0.016989935;-0.08162391;0.09022925
521;2.9104683;0.72967803;0.293442;3.1203687;-9.283028;-0.50900465;-0.42982152;-0.7504567;-0.16191542;-0.11205293;-0.015619815;-0.015475966
522;2.9104683;0.72967803;0.293442;3.1203687;-9.283028;-0.50900465;0.14101022;-0.8963936;0.28574875;-0.11205293;-0.015619815;-0.015475966
523;2.9104683;0.72967803;0.293442;3.1203687;-9.283028;-0.50900465;0.14101022;-0.8963936;0.28574875;-0.11205293;-0.015619815;-0.015475966
524;2.9104683;0.72967803;0.293442;3.1203687;-9.283028;-0.50900465;0.14101022;-0.8963936;0.28574875;-0.11205293;-0.015619815;-0.015475966
525;2.9104683;0.72967803;0.293442;3.1203687;-9.283028;-0.50900465;0.14101022;-0.8963936;0.28574875;-0.11205293;-0.015619815;-0.015475966
526;2.9104683;0.72967803;0.293442;3.1203687;-9.283028;-0.50900465;0.14101022;-0.8963936;0.28574875;-0.11205293;-0.015619815;-0.015475966
527;2.6747062;0.41601908;0.23403947;2.5587714;-9.441977;-0.6871261;0.14101022;-0.8963936;0.28574875;-0.20118338;-0.13276781;-0.036050055
528;2.6747062;0.41601908;0.23403947;2.5587714;-9.441977;-0.6871261;1.2439258;0.8927984;-0.2240984;-0.20118338;-0.13276781;-0.036050055
529;2.6747062;0.41601908;0.23403947;2.5587714;-9.441977;-0.6871261;1.2439258;0.8927984;-0.2240984;-0.20118338;-0.13276781;-0.036050055
530;2.6747062;0.41601908;0.23403947;2.5587714;-9.441977;-0.6871261;1.2439258;0.8927984;-0.2240984;-0.20118338;-0.13276781;-0.036050055
531;2.6747062;0.41601908;0.23403947;2.5587714;-9.441977;-0.6871261;1.2439258;0.8927984;-0.2240984;-0.20118338;-0.13276781;-0.036050055
532;2.6747062;0.41601908;0.23403947;2.5587714;-9.441977;-0.6871261;1.2439258;0.8927984;-0.2240984;-0.20118338;-0.13276781;-0.036050055
533;2.1826127;0.41524395;0.35193974;2.8155186;-9.176996;2.0064855;1.2439258;0.8927984;-0.2240984;-0.032473993;0.19500944;0.111380406
534;2.1826127;0.41524395;0.35193974;2.8155186;-9.176996;2.0064855;0.09587097;0.5921364;-0.4659063;-0.032473993;0.19500944;0.111380406
535;2.1826127;0.41524395;0.35193974;2.8155186;-9.176996;2.0064855;0.09587097;0.5921364;-0.4659063;-0.032473993;0.19500944;0.111380406
536;2.1826127;0.41524395;0.35193974;2.8155186;-9.176996;2.0064855;0.09587097;0.5921364;-0.4659063;-0.032473993;0.19500944;0.111380406
537;2.1826127;0.41524395;0.35193974;2.8155186;-9.176996;2.0064855;0.09587097;0.5921364;-0.4659063;-0.032473993;0.19500944;0.111380406
538;2.3040748;0.6427885;0.44923368;3.3650255;-8.878351;2.4539516;0.09587097;0.5921364;-0.4659063;0.027179377;0.19844203;-0.05157803
539;2.3040748;0.6427885;0.44923368;3.3650255;-8.878351;2.4539516;0.09587097;0.5921364;-0.4659063;0.027179377;0.19844203;-0.05157803
540;2.3040748;0.6427885;0.44923368;3.3650255;-8.878351;2.4539516;-0.5660382;0.22423156;-0.08615072;0.027179377;0.19844203;-0.05157803
541;2.3040748;0.6427885;0.44923368;3.3650255;-8.878351;2.4539516;-0.5660382;0.22423156;-0.08615072;0.027179377;0.19844203;-0.05157803
542;2.3040748;0.6427885;0.44923368;3.3650255;-8.878351;2.4539516;-0.5660382;0.22423156;-0.08615072;0.027179377;0.19844203;-0.05157803
543;2.3040748;0.6427885;0.44923368;3.3650255;-8.878351;2.4539516;-0.5660382;0.22423156;-0.08615072;0.027179377;0.19844203;-0.05157803
544;2.559314;0.8281192;0.44757152;3.4180796;-9.0296955;1.718053;-0.5660382;0.22423156;-0.08615072;-0.013015515;-0.23924844;-0.02197456
545;2.559314;0.8281192;0.44757152;3.4180796;-9.0296955;1.718053;-0.5660382;0.22423156;-0.08615072;-0.013015515;-0.23924844;-0.02197456
546;2.559314;0.8281192;0.44757152;3.4180796;-9.0296955;1.718053;-0.5358122;-0.7511224;0.025698747;-0.013015515;-0.23924844;-0.02197456
547;2.559314;0.8281192;0.44757152;3.4180796;-9.0296955;1.718053;-0.5358122;-0.7511224;0.025698747;-0.013015515;-0.23924844;-0.02197456
548;2.559314;0.8281192;0.44757152;3.4180796;-9.0296955;1.718053;-0.5358122;-0.7511224;0.025698747;-0.013015515;-0.23924844;-0.02197456
549;2.559314;0.8281192;0.44757152;3.4180796;-9.0296955;1.718053;-0.5358122;-0.7511224;0.025698747;-0.013015515;-0.23924844;-0.02197456
550;2.842523;0.90705156;0.3693725;3.46445;-9.173324;0.13458315;-0.5358122;-0.7511224;0.025698747;0.04855286;0.18538967;0.0929009
551;2.842523;0.90705156;0.3693725;3.46445;-9.173324;0.13458315;-0.5358122;-0.7511224;0.025698747;0.04855286;0.18538967;0.0929009
552;2.842523;0.90705156;0.3693725;3.46445;-9.173324;0.13458315;0.28894445;-1.5525771;0.24740037;0.04855286;0.18538967;0.0929009
553;2.842523;0.90705156;0.3693725;3.46445;-9.173324;0.13458315;0.28894445;-1.5525771;0.24740037;0.04855286;0.18538967;0.0929009
554;2.842523;0.90705156;0.3693725;3.46445;-9.173324;0.13458315;0.28894445;-1.5525771;0.24740037;0.04855286;0.18538967;0.0929009
555;2.842523;0.90705156;0.3693725;3.46445;-9.173324;0.13458315;0.28894445;-1.5525771;0.24740037;0.04855286;0.18538967;0.0929009
556;2.6371555;0.53738105;0.2943932;2.9554155;-9.347389;-0.24943718;0.28894445;-1.5525771;0.24740037;0.0006522121;-0.16127616;-0.085358515
557;2.6371555;0.53738105;0.2943932;2.9554155;-9.347389;-0.24943718;0.28894445;-1.5525771;0.24740037;0.0006522121;-0.16127616;-0.085358515
558;2.6371555;0.53738105;0.2943932;2.9554155;-9.347389;-0.24943718;0.36963585;-0.9898678;0.015845342;0.0006522121;-0.16127616;-0.085358515
559;2.6371555;0.53738105;0.2943932;2.9554155;-9.347389;-0.24943718;0.36963585;-0.9898678;0.015845342;0.0006522121;-0.16127616;-0.085358515
560;2.6371555;0.53738105;0.2943932;2.9554155;-9.347389;-0.24943718;0.36963585;-0.9898678;0.015845342;0.0006522121;-0.16127616;-0.085358515
561;2.6371555;0.53738105;0.2943932;2.9554155;-9.347389;-0.24943718;0.36963585;-0.9898678;0.015845342;0.0006522121;-0.16127616;-0.085358515
562;1.8048449;0.36722845;0.3061768;2.9739301;-9.343656;-0.14910841;0.36963585;-0.9898678;0.015845342;-0.2085528;0.043495562;0.006789072
563;1.8048449;0.36722845;0.3061768;2.9739301;-9.343656;-0.14910841;0.36963585;-0.9898678;0.015845342;-0.2085528;0.043495562;0.006789072
564;1.8048449;0.36722845;0.3061768;2.9739301;-9.343656;-0.14910841;1.700245;-0.558981;0.15685557;-0.2085528;0.043495562;0.006789072
565;1.8048449;0.36722845;0.3061768;2.9739301;-9.343656;-0.14910841;1.700245;-0.558981;0.15685557;-0.2085528;0.043495562;0.006789072
566;1.8048449;0.36722845;0.3061768;2.9739301;-9.343656;-0.14910841;1.700245;-0.558981;0.15685557;-0.2085528;0.043495562;0.006789072
567;1.8048449;0.36722845;0.3061768;2.9739301;-9.343656;-0.14910841;1.700245;-0.558981;0.15685557;-0.2085528;0.043495562;0.006789072
568;1.5550476;0.3156334;0.26810548;2.712092;-9.073686;2.5462048;1.700245;-0.558981;0.15685557;0.11852691;0.20730929;0.16637805
569;1.5550476;0.3156334;0.26810548;2.712092;-9.073686;2.5462048;1.700245;-0.558981;0.15685557;0.11852691;0.20730929;0.16637805
570;1.5550476;0.3156334;0.26810548;2.712092;-9.073686;2.5462048;0.31823838;-1.6275429;0.0984009;0.11852691;0.20730929;0.16637805
571;1.5550476;0.3156334;0.26810548;2.712092;-9.073686;2.5462048;0.31823838;-1.6275429;0.0984009;0.11852691;0.20730929;0.16637805
572;1.5550476;0.3156334;0.26810548;2.712092;-9.073686;2.5462048;0.31823838;-1.6275429;0.0984009;0.11852691;0.20730929;0.16637805
573;1.5550476;0.3156334;0.26810548;2.712092;-9.073686;2.5462048;0.31823838;-1.6275429;0.0984009;0.11852691;0.20730929;0.16637805
574;1.2581991;0.46263263;0.29012996;3.3357399;-8.987972;2.063879;0.31823838;-1.6275429;0.0984009;0.12932098;0.16770874;-0.06675185
575;1.2581991;0.46263263;0.29012996;3.3357399;-8.987972;2.063879;0.31823838;-1.6275429;0.0984009;0.12932098;0.16770874;-0.06675185
576;1.2581991;0.46263263;0.29012996;3.3357399;-8.987972;2.063879;-0.07283531;-0.9639027;-0.122102335;0.12932098;0.16770874;-0.06675185
577;1.2581991;0.46263263;0.29012996;3.3357399;-8.987972;2.063879;-0.07283531;-0.9639027;-0.122102335;0.12932098;0.16770874;-0.06675185
578;1.2581991;0.46263263;0.29012996;3.3357399;-8.987972;2.063879;-0.07283531;-0.9639027;-0.122102335;0.12932098;0.16770874;-0.06675185
579;1.2581991;0.46263263;0.29012996;3.3357399;-8.987972;2.063879;-0.07283531;-0.9639027;-0.122102335;0.12932098;0.16770874;-0.06675185
580;1.0012755;1.1205786;0.31199756;3.8768492;-8.910169;1.3226155;-0.07283531;-0.9639027;-0.122102335;-0.0139468545;-0.15552267;0.052022494
581;1.0012755;1.1205786;0.31199756;3.8768492;-8.910169;1.3226155;-0.07283531;-0.9639027;-0.122102335;-0.0139468545;-0.15552267;0.052022494
582;1.0012755;1.1205786;0.31199756;3.8768492;-8.910169;1.3226155;0.64593065;-1.8369943;0.33754572;-0.0139468545;-0.15552267;0.052022494
583;1.0012755;1.1205786;0.31199756;3.8768492;-8.910169;1.3226155;0.64593065;-1.8369943;0.33754572;-0.0139468545;-0.15552267;0.052022494
584;1.0012755;1.1205786;0.31199756;3.8768492;-8.910169;1.3226155;0.64593065;-1.8369943;0.33754572;-0.0139468545;-0.15552267;0.052022494
585;1.0012755;1.1205786;0.31199756;3.8768492;-8.910169;1.3226155;0.64593065;-1.8369943;0.33754572;-0.0139468545;-0.15552267;0.052022494
586;0.8638001;1.8047719;0.28785473;3.6614616;-9.049493;0.9331417;0.64593065;-1.8369943;0.33754572;0.054209165;0.278604;0.04955694
587;0.8638001;1.8047719;0.28785473;3.6614616;-9.049493;0.9331417;0.64593065;-1.8369943;0.33754572;0.054209165;0.278604;0.04955694
588;0.8638001;1.8047719;0.28785473;3.6614616;-9.049493;0.9331417;0.8624393;-2.3321946;0.32090145;0.054209165;0.278604;0.04955694
589;0.8638001;1.8047719;0.28785473;3.6614616;-9.049493;0.9331417;0.8624393;-2.3321946;0.32090145;0.054209165;0.278604;0.04955694
590;0.8638001;1.8047719;0.28785473;3.6614616;-9.049493;0.9331417;0.8624393;-2.3321946;0.32090145;0.054209165;0.278604;0.04955694
591;0.8638001;1.8047719;0.28785473;3.6614616;-9.049493;0.9331417;0.8624393;-2.3321946;0.32090145;0.054209165;0.278604;0.04955694
592;0.65779084;2.6744828;0.16245309;3.5155833;-9.116868;0.8329423;0.8624393;-2.3321946;0.32090145;-0.06069901;0.012497222;-0.014330001
593;0.65779084;2.6744828;0.16245309;3.5155833;-9.116868;0.8329423;0.8624393;-2.3321946;0.32090145;-0.06069901;0.012497222;-0.014330001
594;0.65779084;2.6744828;0.16245309;3.5155833;-9.116868;0.8329423;1.5915912;-2.747369;0.21491076;-0.06069901;0.012497222;-0.014330001
595;0.65779084;2.6744828;0.16245309;3.5155833;-9.116868;0.8329423;1.5915912;-2.747369;0.21491076;-0.06069901;0.012497222;-0.014330001
596;0.65779084;2.6744828;0.16245309;3.5155833;-9.116868;0.8329423;1.5915912;-2.747369;0.21491076;-0.06069901;0.012497222;-0.014330001
597;0.65779084;2.6744828;0.16245309;3.5155833;-9.116868;0.8329423;1.5915912;-2.747369;0.21491076;-0.06069901;0.012497222;-0.014330001
598;0.6648925;2.7748032;-1.780142;3.7538736;-8.907108;1.6559718;1.5915912;-2.747369;0.21491076;0.09783243;0.1425567;0.04357436
599;0.6648925;2.7748032;-1.780142;3.7538736;-8.907108;1.6559718;1.5915912;-2.747369;0.21491076;0.09783243;0.1425567;0.04357436
600;0.6648925;2.7748032;-1.780142;3.7538736;-8.907108;1.6559718;1.1604382;-1.727009;0.9571119;0.09783243;0.1425567;0.04357436
601;0.6648925;2.7748032;-1.780142;3.7538736;-8.907108;1.6559718;1.1604382;-1.727009;0.9571119;0.09783243;0.1425567;0.04357436
602;0.6648925;2.7748032;-1.780142;3.7538736;-8.907108;1.6559718;1.1604382;-1.727009;0.9571119;0.09783243;0.1425567;0.04357436
603;0.6648925;2.7748032;-1.780142;3.7538736;-8.907108;1.6559718;1.1604382;-1.727009;0.9571119;0.09783243;0.1425567;0.04357436
604;0.8336199;2.4614577;-2.5692644;2.6952522;-9.094234;2.4901597;1.1604382;-1.727009;0.9571119;0.1014009;0.11705111;0.05347702
605;0.8336199;2.4614577;-2.5692644;2.6952522;-9.094234;2.4901597;1.1604382;-1.727009;0.9571119;0.1014009;0.11705111;0.05347702
606;0.8336199;2.4614577;-2.5692644;2.6952522;-9.094234;2.4901597;-0.19933173;-0.9713594;0.19893226;0.1014009;0.11705111;0.05347702
607;0.8336199;2.4614577;-2.5692644;2.6952522;-9.094234;2.4901597;-0.19933173;-0.9713594;0.19893226;0.1014009;0.11705111;0.05347702
608;0.8336199;2.4614577;-2.5692644;2.6952522;-9.094234;2.4901597;-0.19933173;-0.9713594;0.19893226;0.1014009;0.11705111;0.05347702
609;0.8336199;2.4614577;-2.5692644;2.6952522;-9.094234;2.4901597;-0.19933173;-0.9713594;0.19893226;0.1014009;0.11705111;0.05347702
610;1.0752033;0.55777216;-2.7705624;2.7713747;-9.244695;1.7393913;-0.19933173;-0.9713594;0.19893226;0.027743392;-0.24675165;-0.108232506
611;1.0752033;0.55777216;-2.7705624;2.7713747;-9.244695;1.7393913;-0.19933173;-0.9713594;0.19893226;0.027743392;-0.24675165;-0.108232506
612;1.0752033;0.55777216;-2.7705624;2.7713747;-9.244695;1.7393913;-0.26431096;-0.9959929;0.08029194;0.027743392;-0.24675165;-0.108232506
613;1.0752033;0.55777216;-2.7705624;2.7713747;-9.244695;1.7393913;-0.26431096;-0.9959929;0.08029194;0.027743392;-0.24675165;-0.108232506
614;1.0752033;0.55777216;-2.7705624;2.7713747;-9.244695;1.7393913;-0.26431096;-0.9959929;0.08029194;0.027743392;-0.24675165;-0.108232506
615;1.0752033;0.55777216;-2.7705624;2.7713747;-9.244695;1.7393913;-0.26431096;-0.9959929;0.08029194;0.027743392;-0.24675165;-0.108232506
616;1.226879;0.3923194;-2.8274992;2.8584306;-9.355179;0.6930989;-0.26431096;-0.9959929;0.08029194;-0.0023789848;-0.00512301;0.062047835
617;1.226879;0.3923194;-2.8274992;2.8584306;-9.355179;0.6930989;-0.26431096;-0.9959929;0.08029194;-0.0023789848;-0.00512301;0.062047835
618;1.226879;0.3923194;-2.8274992;2.8584306;-9.355179;0.6930989;-0.5886744;0.09427312;-0.18175538;-0.0023789848;-0.00512301;0.062047835
619;1.226879;0.3923194;-2.8274992;2.8584306;-9.355179;0.6930989;-0.5886744;0.09427312;-0.18175538;-0.0023789848;-0.00512301;0.062047835
620;1.226879;0.3923194;-2.8274992;2.8584306;-9.355179;0.6930989;-0.5886744;0.09427312;-0.18175538;-0.0023789848;-0.00512301;0.062047835
621;1.226879;0.3923194;-2.8274992;2.8584306;-9.355179;0.6930989;-0.5886744;0.09427312;-0.18175538;-0.0023789848;-0.00512301;0.062047835
622;1.4938209;0.40154228;-2.8072207;3.2361562;-9.251755;-0.32048565;-0.5886744;0.09427312;-0.18175538;-0.043513454;-0.031590234;-0.038113043
623;1.4938209;0.40154228;-2.8072207;3.2361562;-9.251755;-0.32048565;-0.5886744;0.09427312;-0.18175538;-0.043513454;-0.031590234;-0.038113043
624;1.4938209;0.40154228;-2.8072207;3.2361562;-9.251755;-0.32048565;-0.009587097;-0.79759324;0.3047898;-0.043513454;-0.031590234;-0.038113043
625;1.4938209;0.40154228;-2.8072207;3.2361562;-9.251755;-0.32048565;-0.009587097;-0.79759324;0.3047898;-0.043513454;-0.031590234;-0.038113043
626;1.4938209;0.40154228;-2.8072207;3.2361562;-9.251755;-0.32048565;-0.009587097;-0.79759324;0.3047898;-0.043513454;-0.031590234;-0.038113043
627;1.4938209;0.40154228;-2.8072207;3.2361562;-9.251755;-0.32048565;-0.009587097;-0.79759324;0.3047898;-0.043513454;-0.031590234;-0.038113043
628;1.398629;0.3074094;-2.8797188;2.6149786;-9.423821;-0.7237873;-0.009587097;-0.79759324;0.3047898;-0.10587136;-0.15105799;0.01578258
629;1.398629;0.3074094;-2.8797188;2.6149786;-9.423821;-0.7237873;-0.009587097;-0.79759324;0.3047898;-0.10587136;-0.15105799;0.01578258
630;1.398629;0.3074094;-2.8797188;2.6149786;-9.423821;-0.7237873;0.92036134;1.3232857;-0.2890776;-0.10587136;-0.15105799;0.01578258
631;1.398629;0.3074094;-2.8797188;2.6149786;-9.423821;-0.7237873;0.92036134;1.3232857;-0.2890776;-0.10587136;-0.15105799;0.01578258
632;1.398629;0.3074094;-2.8797188;2.6149786;-9.423821;-0.7237873;0.92036134;1.3232857;-0.2890776;-0.10587136;-0.15105799;0.01578258
633;1.398629;0.3074094;-2.8797188;2.6149786;-9.423821;-0.7237873;0.92036134;1.3232857;-0.2890776;-0.10587136;-0.15105799;0.01578258
634;1.5266676;0.36334938;-2.82863;3.017467;-9.190694;1.6113422;0.92036134;1.3232857;-0.2890776;-0.06462774;0.23201334;0.105400935
635;1.5266676;0.36334938;-2.82863;3.017467;-9.190694;1.6113422;0.92036134;1.3232857;-0.2890776;-0.06462774;0.23201334;0.105400935
636;1.5266676;0.36334938;-2.82863;3.017467;-9.190694;1.6113422;0.39666614;1.3878654;-0.58907384;-0.06462774;0.23201334;0.105400935
637;1.5266676;0.36334938;-2.82863;3.017467;-9.190694;1.6113422;0.39666614;1.3878654;-0.58907384;-0.06462774;0.23201334;0.105400935
638;1.5266676;0.36334938;-2.82863;3.017467;-9.190694;1.6113422;0.39666614;1.3878654;-0.58907384;-0.06462774;0.23201334;0.105400935
639;1.5266676;0.36334938;-2.82863;3.017467;-9.190694;1.6113422;0.39666614;1.3878654;-0.58907384;-0.06462774;0.23201334;0.105400935
640;1.2903653;0.50629544;-2.7178962;3.387142;-8.672338;3.0802944;0.39666614;1.3878654;-0.58907384;-0.0037997747;0.26184848;0.021793645
641;1.2903653;0.50629544;-2.7178962;3.387142;-8.672338;3.0802944;0.39666614;1.3878654;-0.58907384;-0.0037997747;0.26184848;0.021793645
642;1.2903653;0.50629544;-2.7178962;3.387142;-8.672338;3.0802944;-0.47030038;-0.018774733;-0.14380646;-0.0037997747;0.26184848;0.021793645
643;1.2903653;0.50629544;-2.7178962;3.387142;-8.672338;3.0802944;-0.47030038;-0.018774733;-0.14380646;-0.0037997747;0.26184848;0.021793645
644;1.2903653;0.50629544;-2.7178962;3.387142;-8.672338;3.0802944;-0.47030038;-0.018774733;-0.14380646;-0.0037997747;0.26184848;0.021793645
645;1.2903653;0.50629544;-2.7178962;3.387142;-8.672338;3.0802944;-0.47030038;-0.018774733;-0.14380646;-0.0037997747;0.26184848;0.021793645
646;1.1554381;0.82850593;-2.659138;3.5432417;-8.852707;2.2902882;-0.47030038;-0.018774733;-0.14380646;0.20286135;-0.062697135;-0.050408635
647;1.1554381;0.82850593;-2.659138;3.5432417;-8.852707;2.2902882;-0.47030038;-0.018774733;-0.14380646;0.20286135;-0.062697135;-0.050408635
648;1.1554381;0.82850593;-2.659138;3.5432417;-8.852707;2.2902882;-0.7793511;-0.37536147;0.039147314;0.20286135;-0.062697135;-0.050408635
649;1.1554381;0.82850593;-2.659138;3.5432417;-8.852707;2.2902882;-0.7793511;-0.37536147;0.039147314;0.20286135;-0.062697135;-0.050408635
650;1.1554381;0.82850593;-2.659138;3.5432417;-8.852707;2.2902882;-0.7793511;-0.37536147;0.039147314;0.20286135;-0.062697135;-0.050408635
651;1.1554381;0.82850593;-2.659138;3.5432417;-8.852707;2.2902882;-0.7793511;-0.37536147;0.039147314;0.20286135;-0.062697135;-0.050408635
652;1.1225475;0.7871202;-2.7388294;3.5770974;-9.11304;0.57206863;-0.7793511;-0.37536147;0.039147314;-0.042224463;0.107367806;0.11447523
653;1.1225475;0.7871202;-2.7388294;3.5770974;-9.11304;0.57206863;-0.7793511;-0.37536147;0.039147314;-0.042224463;0.107367806;0.11447523
654;1.1225475;0.7871202;-2.7388294;3.5770974;-9.11304;0.57206863;-0.13568406;-1.0481893;0.21917169;-0.042224463;0.107367806;0.11447523
655;1.1225475;0.7871202;-2.7388294;3.5770974;-9.11304;0.57206863;-0.13568406;-1.0481893;0.21917169;-0.042224463;0.107367806;0.11447523
656;1.1225475;0.7871202;-2.7388294;3.5770974;-9.11304;0.57206863;-0.13568406;-1.0481893;0.21917169;-0.042224463;0.107367806;0.11447523
657;1.1225475;0.7871202;-2.7388294;3.5770974;-9.11304;0.57206863;-0.13568406;-1.0481893;0.21917169;-0.042224463;0.107367806;0.11447523
658;1.0809417;0.5982163;-2.8256361;3.1903796;-9.267535;-0.32351092;-0.13568406;-1.0481893;0.21917169;-0.004409504;-0.11959367;-0.102959685
659;1.0809417;0.5982163;-2.8256361;3.1903796;-9.267535;-0.32351092;-0.13568406;-1.0481893;0.21917169;-0.004409504;-0.11959367;-0.102959685
660;1.0809417;0.5982163;-2.8256361;3.1903796;-9.267535;-0.32351092;0.16338012;0.19360611;-0.004926703;-0.004409504;-0.11959367;-0.102959685
661;1.0809417;0.5982163;-2.8256361;3.1903796;-9.267535;-0.32351092;0.16338012;0.19360611;-0.004926703;-0.004409504;-0.11959367;-0.102959685
662;1.0809417;0.5982163;-2.8256361;3.1903796;-9.267535;-0.32351092;0.16338012;0.19360611;-0.004926703;-0.004409504;-0.11959367;-0.102959685
663;1.0809417;0.5982163;-2.8256361;3.1903796;-9.267535;-0.32351092;0.16338012;0.19360611;-0.004926703;-0.004409504;-0.11959367;-0.102959685
664;1.2666;0.47128007;-2.7958136;3.2994566;-9.234395;0.099627934;0.16338012;0.19360611;-0.004926703;-0.25443345;-0.0015499364;0.08655377
665;1.2666;0.47128007;-2.7958136;3.2994566;-9.234395;0.099627934;0.16338012;0.19360611;-0.004926703;-0.25443345;-0.0015499364;0.08655377
666;1.2666;0.47128007;-2.7958136;3.2994566;-9.234395;0.099627934;1.3749496;0.8539174;-0.15805395;-0.25443345;-0.0015499364;0.08655377
667;1.2666;0.47128007;-2.7958136;3.2994566;-9.234395;0.099627934;1.3749496;0.8539174;-0.15805395;-0.25443345;-0.0015499364;0.08655377
668;1.2666;0.47128007;-2.7958136;3.2994566;-9.234395;0.099627934;1.3749496;0.8539174;-0.15805395;-0.25443345;-0.0015499364;0.08655377
669;1.2666;0.47128007;-2.7958136;3.2994566;-9.234395;0.099627934;1.3749496;0.8539174;-0.15805395;-0.25443345;-0.0015499364;0.08655377
670;1.2044616;0.5691796;-2.6986625;3.2203124;-8.760519;3.0088677;1.3749496;0.8539174;-0.15805395;0.18458912;0.25525683;0.14372562
671;1.2044616;0.5691796;-2.6986625;3.2203124;-8.760519;3.0088677;1.3749496;0.8539174;-0.15805395;0.18458912;0.25525683;0.14372562
672;1.2044616;0.5691796;-2.6986625;3.2203124;-8.760519;3.0088677;-0.44087332;-0.31703997;-0.3059882;0.18458912;0.25525683;0.14372562
673;1.2044616;0.5691796;-2.6986625;3.2203124;-8.760519;3.0088677;-0.44087332;-0.31703997;-0.3059882;0.18458912;0.25525683;0.14372562
674;1.2044616;0.5691796;-2.6986625;3.2203124;-8.760519;3.0088677;-0.44087332;-0.31703997;-0.3059882;0.18458912;0.25525683;0.14372562
675;1.2044616;0.5691796;-2.6986625;3.2203124;-8.760519;3.0088677;-0.44087332;-0.31703997;-0.3059882;0.18458912;0.25525683;0.14372562
676;1.2236212;0.7632478;-2.6584806;3.8546636;-8.7913065;2.0062127;-0.44087332;-0.31703997;-0.3059882;0.20452167;0.060703896;-0.16350119
677;1.2236212;0.7632478;-2.6584806;3.8546636;-8.7913065;2.0062127;-0.44087332;-0.31703997;-0.3059882;0.20452167;0.060703896;-0.16350119
678;1.2236212;0.7632478;-2.6584806;3.8546636;-8.7913065;2.0062127;-0.21118245;-0.17323352;0.47669178;0.20452167;0.060703896;-0.16350119
679;1.2236212;0.7632478;-2.6584806;3.8546636;-8.7913065;2.0062127;-0.21118245;-0.17323352;0.47669178;0.20452167;0.060703896;-0.16350119
680;1.2236212;0.7632478;-2.6584806;3.8546636;-8.7913065;2.0062127;-0.21118245;-0.17323352;0.47669178;0.20452167;0.060703896;-0.16350119
681;1.2236212;0.7632478;-2.6584806;3.8546636;-8.7913065;2.0062127;-0.21118245;-0.17323352;0.47669178;0.20452167;0.060703896;-0.16350119
682;1.1534116;0.5170885;-2.7675574;3.011562;-9.198876;1.5752934;-0.21118245;-0.17323352;0.47669178;0.041522358;-0.16548139;0.17932625
683;1.1534116;0.5170885;-2.7675574;3.011562;-9.198876;1.5752934;-0.21118245;-0.17323352;0.47669178;0.041522358;-0.16548139;0.17932625
684;1.1534116;0.5170885;-2.7675574;3.011562;-9.198876;1.5752934;-0.3726984;-1.1312774;-0.20013066;0.041522358;-0.16548139;0.17932625
685;1.1534116;0.5170885;-2.7675574;3.011562;-9.198876;1.5752934;-0.3726984;-1.1312774;-0.20013066;0.041522358;-0.16548139;0.17932625
686;1.1534116;0.5170885;-2.7675574;3.011562;-9.198876;1.5752934;-0.3726984;-1.1312774;-0.20013066;0.041522358;-0.16548139;0.17932625
687;1.1534116;0.5170885;-2.7675574;3.011562;-9.198876;1.5752934;-0.3726984;-1.1312774;-0.20013066;0.041522358;-0.16548139;0.17932625
688;1.2455261;0.5714878;-2.7611115;3.602714;-9.119918;0.13389914;-0.3726984;-1.1312774;-0.20013066;-0.053776488;0.061860923;-0.055639263
689;1.2455261;0.5714878;-2.7611115;3.602714;-9.119918;0.13389914;-0.3726984;-1.1312774;-0.20013066;-0.053776488;0.061860923;-0.055639263
690;1.2455261;0.5714878;-2.7611115;3.602714;-9.119918;0.13389914;0.029826526;-1.0062457;0.31371114;-0.053776488;0.061860923;-0.055639263
691;1.2455261;0.5714878;-2.7611115;3.602714;-9.119918;0.13389914;0.029826526;-1.0062457;0.31371114;-0.053776488;0.061860923;-0.055639263
692;1.2455261;0.5714878;-2.7611115;3.602714;-9.119918;0.13389914;0.029826526;-1.0062457;0.31371114;-0.053776488;0.061860923;-0.055639263
693;1.2455261;0.5714878;-2.7611115;3.602714;-9.119918;0.13389914;0.029826526;-1.0062457;0.31371114;-0.053776488;0.061860923;-0.055639263
694;1.4135416;0.37932858;-2.8289175;3.0649736;-9.304876;-0.44227257;0.029826526;-1.0062457;0.31371114;-0.1730273;-0.08955399;-0.054055348
695;1.4135416;0.37932858;-2.8289175;3.0649736;-9.304876;-0.44227257;0.029826526;-1.0062457;0.31371114;-0.1730273;-0.08955399;-0.054055348
696;1.4135416;0.37932858;-2.8289175;3.0649736;-9.304876;-0.44227257;1.2476542;0.6888063;-0.27509642;-0.1730273;-0.08955399;-0.054055348
697;1.4135416;0.37932858;-2.8289175;3.0649736;-9.304876;-0.44227257;1.2476542;0.6888063;-0.27509642;-0.1730273;-0.08955399;-0.054055348
698;1.4135416;0.37932858;-2.8289175;3.0649736;-9.304876;-0.44227257;1.2476542;0.6888063;-0.27509642;-0.1730273;-0.08955399;-0.054055348
699;1.4135416;0.37932858;-2.8289175;3.0649736;-9.304876;-0.44227257;1.2476542;0.6888063;-0.27509642;-0.1730273;-0.08955399;-0.054055348
700;1.5516329;0.42094913;-2.7981348;3.3590083;-8.955449;2.1650367;1.2476542;0.6888063;-0.27509642;0.048125017;0.21414135;0.1767768
701;1.5516329;0.42094913;-2.7981348;3.3590083;-8.955449;2.1650367;1.2476542;0.6888063;-0.27509642;0.048125017;0.21414135;0.1767768
702;1.5516329;0.42094913;-2.7981348;3.3590083;-8.955449;2.1650367;0.25419122;0.40252492;-0.20013066;0.048125017;0.21414135;0.1767768
703;1.5516329;0.42094913;-2.7981348;3.3590083;-8.955449;2.1650367;0.25419122;0.40252492;-0.20013066;0.048125017;0.21414135;0.1767768
704;1.5516329;0.42094913;-2.7981348;3.3590083;-8.955449;2.1650367;0.25419122;0.40252492;-0.20013066;0.048125017;0.21414135;0.1767768
705;1.5516329;0.42094913;-2.7981348;3.3590083;-8.955449;2.1650367;0.25419122;0.40252492;-0.20013066;0.048125017;0.21414135;0.1767768
706;1.459089;0.44724894;-2.7710211;3.465498;-8.737029;2.7973273;0.25419122;0.40252492;-0.20013066;0.097707115;0.20731483;-0.0038148914
707;1.459089;0.44724894;-2.7710211;3.465498;-8.737029;2.7973273;0.25419122;0.40252492;-0.20013066;0.097707115;0.20731483;-0.0038148914
708;1.459089;0.44724894;-2.7710211;3.465498;-8.737029;2.7973273;-0.36177978;-0.26657456;-0.11704248;0.097707115;0.20731483;-0.0038148914
709;1.459089;0.44724894;-2.7710211;3.465498;-8.737029;2.7973273;-0.36177978;-0.26657456;-0.11704248;0.097707115;0.20731483;-0.0038148914
710;1.459089;0.44724894;-2.7710211;3.465498;-8.737029;2.7973273;-0.36177978;-0.26657456;-0.11704248;0.097707115;0.20731483;-0.0038148914
711;1.459089;0.44724894;-2.7710211;3.465498;-8.737029;2.7973273;-0.36177978;-0.26657456;-0.11704248;0.097707115;0.20731483;-0.0038148914
712;1.4329996;0.51247567;-2.7318168;3.756554;-8.814523;2.0887508;-0.36177978;-0.26657456;-0.11704248;0.06720966;-0.2367618;-0.009359229
713;1.4329996;0.51247567;-2.7318168;3.756554;-8.814523;2.0887508;-0.36177978;-0.26657456;-0.11704248;0.06720966;-0.2367618;-0.009359229
714;1.4329996;0.51247567;-2.7318168;3.756554;-8.814523;2.0887508;-0.49280342;-1.0519176;0.23168819;0.06720966;-0.2367618;-0.009359229
715;1.4329996;0.51247567;-2.7318168;3.756554;-8.814523;2.0887508;-0.49280342;-1.0519176;0.23168819;0.06720966;-0.2367618;-0.009359229
716;1.4329996;0.51247567;-2.7318168;3.756554;-8.814523;2.0887508;-0.49280342;-1.0519176;0.23168819;0.06720966;-0.2367618;-0.009359229
717;1.4329996;0.51247567;-2.7318168;3.756554;-8.814523;2.0887508;-0.49280342;-1.0519176;0.23168819;0.06720966;-0.2367618;-0.009359229
718;1.5178423;0.46438017;-2.7661328;3.5852656;-9.121127;0.34827843;-0.49280342;-1.0519176;0.23168819;0.0015711566;0.16188318;0.08062893
719;1.5178423;0.46438017;-2.7661328;3.5852656;-9.121127;0.34827843;-0.49280342;-1.0519176;0.23168819;0.0015711566;0.16188318;0.08062893
720;1.5178423;0.46438017;-2.7661328;3.5852656;-9.121127;0.34827843;0.06857438;-1.2282137;0.26977026;0.0015711566;0.16188318;0.08062893
721;1.5178423;0.46438017;-2.7661328;3.5852656;-9.121127;0.34827843;0.06857438;-1.2282137;0.26977026;0.0015711566;0.16188318;0.08062893
722;1.5178423;0.46438017;-2.7661328;3.5852656;-9.121127;0.34827843;0.06857438;-1.2282137;0.26977026;0.0015711566;0.16188318;0.08062893
723;1.5178423;0.46438017;-2.7661328;3.5852656;-9.121127;0.34827843;0.06857438;-1.2282137;0.26977026;0.0015711566;0.16188318;0.08062893
724;1.8319968;0.38962048;-2.8179557;3.0828846;-9.305536;-0.27052465;0.06857438;-1.2282137;0.26977026;0.011634972;-0.14245173;-0.12370876
725;1.8319968;0.38962048;-2.8179557;3.0828846;-9.305536;-0.27052465;0.06857438;-1.2282137;0.26977026;0.011634972;-0.14245173;-0.12370876
726;1.8319968;0.38962048;-2.8179557;3.0828846;-9.305536;-0.27052465;0.2772269;0.25472385;-0.016511112;0.011634972;-0.14245173;-0.12370876
727;1.8319968;0.38962048;-2.8179557;3.0828846;-9.305536;-0.27052465;0.2772269;0.25472385;-0.016511112;0.011634972;-0.14245173;-0.12370876
728;1.8319968;0.38962048;-2.8179557;3.0828846;-9.305536;-0.27052465;0.2772269;0.25472385;-0.016511112;0.011634972;-0.14245173;-0.12370876
729;1.8319968;0.38962048;-2.8179557;3.0828846;-9.305536;-0.27052465;0.2772269;0.25472385;-0.016511112;0.011634972;-0.14245173;-0.12370876
730;2.4070716;0.519876;-2.8244271;3.1916945;-9.265438;0.36759564;0.2772269;0.25472385;-0.016511112;-0.23411292;0.05423403;0.0860325
731;2.4070716;0.519876;-2.8244271;3.1916945;-9.265438;0.36759564;0.2772269;0.25472385;-0.016511112;-0.23411292;0.05423403;0.0860325
732;2.4070716;0.519876;-2.8244271;3.1916945;-9.265438;0.36759564;1.3457887;0.47682494;-0.20026381;-0.23411292;0.05423403;0.0860325
733;2.4070716;0.519876;-2.8244271;3.1916945;-9.265438;0.36759564;1.3457887;0.47682494;-0.20026381;-0.23411292;0.05423403;0.0860325
734;2.4070716;0.519876;-2.8244271;3.1916945;-9.265438;0.36759564;1.3457887;0.47682494;-0.20026381;-0.23411292;0.05423403;0.0860325
735;2.4070716;0.519876;-2.8244271;3.1916945;-9.265438;0.36759564;1.3457887;0.47682494;-0.20026381;-0.23411292;0.05423403;0.0860325
736;2.2502625;0.4616693;-2.8927207;3.293538;-8.743781;2.9781332;1.3457887;0.47682494;-0.20026381;0.20039457;0.23695816;0.14780055
737;2.2502625;0.4616693;-2.8927207;3.293538;-8.743781;2.9781332;1.3457887;0.47682494;-0.20026381;0.20039457;0.23695816;0.14780055
738;2.2502625;0.4616693;-2.8927207;3.293538;-8.743781;2.9781332;-0.32822493;-0.7451305;-0.23821273;0.20039457;0.23695816;0.14780055
739;2.2502625;0.4616693;-2.8927207;3.293538;-8.743781;2.9781332;-0.32822493;-0.7451305;-0.23821273;0.20039457;0.23695816;0.14780055
740;2.2502625;0.4616693;-2.8927207;3.293538;-8.743781;2.9781332;-0.32822493;-0.7451305;-0.23821273;0.20039457;0.23695816;0.14780055
741;2.2502625;0.4616693;-2.8927207;3.293538;-8.743781;2.9781332;-0.32822493;-0.7451305;-0.23821273;0.20039457;0.23695816;0.14780055
742;2.1643667;0.6523486;-2.7832482;4.0276833;-8.740929;1.8826375;-0.32822493;-0.7451305;-0.23821273;0.20986332;-0.009946064;-0.14916827
743;2.1643667;0.6523486;-2.7832482;4.0276833;-8.740929;1.8826375;-0.32822493;-0.7451305;-0.23821273;0.20986332;-0.009946064;-0.14916827
744;2.1643667;0.6523486;-2.7832482;4.0276833;-8.740929;1.8826375;-0.24407151;-0.29866472;0.45591974;0.20986332;-0.009946064;-0.14916827
745;2.1643667;0.6523486;-2.7832482;4.0276833;-8.740929;1.8826375;-0.24407151;-0.29866472;0.45591974;0.20986332;-0.009946064;-0.14916827
746;2.1643667;0.6523486;-2.7832482;4.0276833;-8.740929;1.8826375;-0.24407151;-0.29866472;0.45591974;0.20986332;-0.009946064;-0.14916827
747;2.618465;0.5579473;-2.8624635;3.2450607;-9.161584;1.3058878;-0.24407151;-0.29866472;0.45591974;0.07845774;-0.18862028;0.16251776
748;2.618465;0.5579473;-2.8624635;3.2450607;-9.161584;1.3058878;-0.24407151;-0.29866472;0.45591974;0.07845774;-0.18862028;0.16251776
749;2.618465;0.5579473;-2.8624635;3.2450607;-9.161584;1.3058878;-0.1918751;-1.6963836;-0.1387466;0.07845774;-0.18862028;0.16251776
750;2.618465;0.5579473;-2.8624635;3.2450607;-9.161584;1.3058878;-0.1918751;-1.6963836;-0.1387466;0.07845774;-0.18862028;0.16251776
751;2.618465;0.5579473;-2.8624635;3.2450607;-9.161584;1.3058878;-0.1918751;-1.6963836;-0.1387466;0.07845774;-0.18862028;0.16251776
752;2.618465;0.5579473;-2.8624635;3.2450607;-9.161584;1.3058878;-0.1918751;-1.6963836;-0.1387466;0.07845774;-0.18862028;0.16251776
753;2.699205;0.8884697;-2.7404304;3.710348;-9.074616;-0.23463786;-0.1918751;-1.6963836;-0.1387466;-0.056000635;0.068119556;-0.056444976
754;2.699205;0.8884697;-2.7404304;3.710348;-9.074616;-0.23463786;-0.1918751;-1.6963836;-0.1387466;-0.056000635;0.068119556;-0.056444976
755;2.699205;0.8884697;-2.7404304;3.710348;-9.074616;-0.23463786;0.25818586;-1.30278;0.24420467;-0.056000635;0.068119556;-0.056444976
756;2.699205;0.8884697;-2.7404304;3.710348;-9.074616;-0.23463786;0.25818586;-1.30278;0.24420467;-0.056000635;0.068119556;-0.056444976
757;2.699205;0.8884697;-2.7404304;3.710348;-9.074616;-0.23463786;0.25818586;-1.30278;0.24420467;-0.056000635;0.068119556;-0.056444976
758;2.699205;0.8884697;-2.7404304;3.710348;-9.074616;-0.23463786;0.25818586;-1.30278;0.24420467;-0.056000635;0.068119556;-0.056444976
759;-3.0050821;2.0154727;-2.7451255;3.198802;-9.249746;-0.6166348;0.25818586;-1.30278;0.24420467;-0.15330188;-0.10357294;-0.031951103
760;-3.0050821;2.0154727;-2.7451255;3.198802;-9.249746;-0.6166348;0.25818586;-1.30278;0.24420467;-0.15330188;-0.10357294;-0.031951103
761;-3.0050821;2.0154727;-2.7451255;3.198802;-9.249746;-0.6166348;1.4381977;0.4900072;-0.1576545;-0.15330188;-0.10357294;-0.031951103
762;-3.0050821;2.0154727;-2.7451255;3.198802;-9.249746;-0.6166348;1.4381977;0.4900072;-0.1576545;-0.15330188;-0.10357294;-0.031951103
763;-3.0050821;2.0154727;-2.7451255;3.198802;-9.249746;-0.6166348;1.4381977;0.4900072;-0.1576545;-0.15330188;-0.10357294;-0.031951103
764;-3.0050821;2.0154727;-2.7451255;3.198802;-9.249746;-0.6166348;1.4381977;0.4900072;-0.1576545;-0.15330188;-0.10357294;-0.031951103
765;-2.5334985;2.5063713;3.105519;3.2901914;-8.969529;2.2119193;1.4381977;0.4900072;-0.1576545;0.06926594;0.21078569;0.1794497
766;-2.5334985;2.5063713;3.105519;3.2901914;-8.969529;2.2119193;1.4381977;0.4900072;-0.1576545;0.06926594;0.21078569;0.1794497
767;-2.5334985;2.5063713;3.105519;3.2901914;-8.969529;2.2119193;0.6023893;0.5254262;-0.07882725;0.06926594;0.21078569;0.1794497
768;-2.5334985;2.5063713;3.105519;3.2901914;-8.969529;2.2119193;0.6023893;0.5254262;-0.07882725;0.06926594;0.21078569;0.1794497
769;-2.5334985;2.5063713;3.105519;3.2901914;-8.969529;2.2119193;0.6023893;0.5254262;-0.07882725;0.06926594;0.21078569;0.1794497
770;-2.5334985;2.5063713;3.105519;3.2901914;-8.969529;2.2119193;0.6023893;0.5254262;-0.07882725;0.06926594;0.21078569;0.1794497
771;-2.4552317;2.3983002;2.9303963;3.105953;-8.618994;3.4980571;0.6023893;0.5254262;-0.07882725;0.03397953;0.23379155;0.018348945
772;-2.4552317;2.3983002;2.9303963;3.105953;-8.618994;3.4980571;0.6023893;0.5254262;-0.07882725;0.03397953;0.23379155;0.018348945
773;-2.4552317;2.3983002;2.9303963;3.105953;-8.618994;3.4980571;-0.66350704;-0.09760197;-0.109585844;0.03397953;0.23379155;0.018348945
774;-2.4552317;2.3983002;2.9303963;3.105953;-8.618994;3.4980571;-0.66350704;-0.09760197;-0.109585844;0.03397953;0.23379155;0.018348945
775;-2.4552317;2.3983002;2.9303963;3.105953;-8.618994;3.4980571;-0.66350704;-0.09760197;-0.109585844;0.03397953;0.23379155;0.018348945
776;-2.4552317;2.3983002;2.9303963;3.105953;-8.618994;3.4980571;-0.66350704;-0.09760197;-0.109585844;0.03397953;0.23379155;0.018348945
777;-2.54407;2.3553712;3.1365948;3.3149383;-8.921362;2.3645024;-0.66350704;-0.09760197;-0.109585844;0.06119541;-0.17416048;-0.033740237
778;-2.54407;2.3553712;3.1365948;3.3149383;-8.921362;2.3645024;-0.66350704;-0.09760197;-0.109585844;0.06119541;-0.17416048;-0.033740237
779;-2.54407;2.3553712;3.1365948;3.3149383;-8.921362;2.3645024;-0.5569837;-1.1195599;0.3709674;0.06119541;-0.17416048;-0.033740237
780;-2.54407;2.3553712;3.1365948;3.3149383;-8.921362;2.3645024;-0.5569837;-1.1195599;0.3709674;0.06119541;-0.17416048;-0.033740237
781;-2.54407;2.3553712;3.1365948;3.3149383;-8.921362;2.3645024;-0.5569837;-1.1195599;0.3709674;0.06119541;-0.17416048;-0.033740237
782;-2.54407;2.3553712;3.1365948;3.3149383;-8.921362;2.3645024;-0.5569837;-1.1195599;0.3709674;0.06119541;-0.17416048;-0.033740237
783;-2.7444758;2.479261;-2.922603;2.9248362;-9.342866;0.57145834;-0.5569837;-1.1195599;0.3709674;0.042291153;0.14599288;0.0706801
784;-2.7444758;2.479261;-2.922603;2.9248362;-9.342866;0.57145834;-0.5569837;-1.1195599;0.3709674;0.042291153;0.14599288;0.0706801
785;-2.7444758;2.479261;-2.922603;2.9248362;-9.342866;0.57145834;-0.24553621;-0.8876054;0.080691405;0.042291153;0.14599288;0.0706801
786;-2.7444758;2.479261;-2.922603;2.9248362;-9.342866;0.57145834;-0.24553621;-0.8876054;0.080691405;0.042291153;0.14599288;0.0706801
787;-2.7444758;2.479261;-2.922603;2.9248362;-9.342866;0.57145834;-0.24553621;-0.8876054;0.080691405;0.042291153;0.14599288;0.0706801
788;-2.7444758;2.479261;-2.922603;2.9248362;-9.342866;0.57145834;-0.24553621;-0.8876054;0.080691405;0.042291153;0.14599288;0.0706801
789;-2.7218025;2.7483878;-2.7780087;2.834995;-9.382649;-0.31476068;-0.24553621;-0.8876054;0.080691405;-0.07837684;-0.14286903;-0.103306934
790;-2.7218025;2.7483878;-2.7780087;2.834995;-9.382649;-0.31476068;-0.24553621;-0.8876054;0.080691405;-0.07837684;-0.14286903;-0.103306934
791;-2.7218025;2.7483878;-2.7780087;2.834995;-9.382649;-0.31476068;0.15552402;-0.5512581;0.12876004;-0.07837684;-0.14286903;-0.103306934
792;-2.7218025;2.7483878;-2.7780087;2.834995;-9.382649;-0.31476068;0.15552402;-0.5512581;0.12876004;-0.07837684;-0.14286903;-0.103306934
793;-2.7218025;2.7483878;-2.7780087;2.834995;-9.382649;-0.31476068;0.15552402;-0.5512581;0.12876004;-0.07837684;-0.14286903;-0.103306934
794;-2.7218025;2.7483878;-2.7780087;2.834995;-9.382649;-0.31476068;0.15552402;-0.5512581;0.12876004;-0.07837684;-0.14286903;-0.103306934
795;-2.6924846;2.8413012;-2.7690413;2.6357353;-9.441604;-0.28176048;0.15552402;-0.5512581;0.12876004;-0.18498579;-0.07498412;0.009636971
796;-2.6924846;2.8413012;-2.7690413;2.6357353;-9.441604;-0.28176048;0.15552402;-0.5512581;0.12876004;-0.18498579;-0.07498412;0.009636971
797;-2.6924846;2.8413012;-2.7690413;2.6357353;-9.441604;-0.28176048;1.5624305;0.61783516;-0.22143531;-0.18498579;-0.07498412;0.009636971
798;-2.6924846;2.8413012;-2.7690413;2.6357353;-9.441604;-0.28176048;1.5624305;0.61783516;-0.22143531;-0.18498579;-0.07498412;0.009636971
799;-2.6924846;2.8413012;-2.7690413;2.6357353;-9.441604;-0.28176048;1.5624305;0.61783516;-0.22143531;-0.18498579;-0.07498412;0.009636971
800;-2.6924846;2.8413012;-2.7690413;2.6357353;-9.441604;-0.28176048;1.5624305;0.61783516;-0.22143531;-0.18498579;-0.07498412;0.009636971
801;-2.5415208;2.830863;2.3729393;2.8168244;-8.970683;2.7861698;1.5624305;0.61783516;-0.22143531;0.0415897;0.28132161;0.1851527
802;-2.5415208;2.830863;2.3729393;2.8168244;-8.970683;2.7861698;1.5624305;0.61783516;-0.22143531;0.0415897;0.28132161;0.1851527
803;-2.5415208;2.830863;2.3729393;2.8168244;-8.970683;2.7861698;-0.09001219;0.27789268;-0.2580527;0.0415897;0.28132161;0.1851527
804;-2.5415208;2.830863;2.3729393;2.8168244;-8.970683;2.7861698;-0.09001219;0.27789268;-0.2580527;0.0415897;0.28132161;0.1851527
805;-2.5415208;2.830863;2.3729393;2.8168244;-8.970683;2.7861698;-0.09001219;0.27789268;-0.2580527;0.0415897;0.28132161;0.1851527
806;-2.5415208;2.830863;2.3729393;2.8168244;-8.970683;2.7861698;-0.09001219;0.27789268;-0.2580527;0.0415897;0.28132161;0.1851527
807;-2.5006933;2.789556;2.5028484;3.0973036;-8.897714;2.7217283;-0.09001219;0.27789268;-0.2580527;0.076479696;0.19765452;-0.14485675
808;-2.5006933;2.789556;2.5028484;3.0973036;-8.897714;2.7217283;-0.09001219;0.27789268;-0.2580527;0.076479696;0.19765452;-0.14485675
809;-2.5006933;2.789556;2.5028484;3.0973036;-8.897714;2.7217283;-0.25219393;0.2229;0.21317975;0.076479696;0.19765452;-0.14485675
810;-2.5006933;2.789556;2.5028484;3.0973036;-8.897714;2.7217283;-0.25219393;0.2229;0.21317975;0.076479696;0.19765452;-0.14485675
811;-2.5006933;2.789556;2.5028484;3.0973036;-8.897714;2.7217283;-0.25219393;0.2229;0.21317975;0.076479696;0.19765452;-0.14485675
812;-2.5006933;2.789556;2.5028484;3.0973036;-8.897714;2.7217283;-0.25219393;0.2229;0.21317975;0.076479696;0.19765452;-0.14485675
813;-2.5674953;2.816844;2.6799872;2.6007335;-9.119996;2.4964485;-0.25219393;0.2229;0.21317975;-0.055865895;-0.24193965;0.13372964
814;-2.5674953;2.816844;2.6799872;2.6007335;-9.119996;2.4964485;-0.25219393;0.2229;0.21317975;-0.055865895;-0.24193965;0.13372964
815;-2.5674953;2.816844;2.6799872;2.6007335;-9.119996;2.4964485;-0.9030513;-0.27163443;-0.07509893;-0.055865895;-0.24193965;0.13372964
816;-2.5674953;2.816844;2.6799872;2.6007335;-9.119996;2.4964485;-0.9030513;-0.27163443;-0.07509893;-0.055865895;-0.24193965;0.13372964
817;-2.5674953;2.816844;2.6799872;2.6007335;-9.119996;2.4964485;-0.9030513;-0.27163443;-0.07509893;-0.055865895;-0.24193965;0.13372964
818;-2.5674953;2.816844;2.6799872;2.6007335;-9.119996;2.4964485;-0.9030513;-0.27163443;-0.07509893;-0.055865895;-0.24193965;0.13372964
819;-2.6322193;2.7986405;-3.0204556;2.859344;-9.364594;0.54673886;-0.9030513;-0.27163443;-0.07509893;-0.06803273;0.28005424;-0.054961774
820;-2.6322193;2.7986405;-3.0204556;2.859344;-9.364594;0.54673886;-0.9030513;-0.27163443;-0.07509893;-0.06803273;0.28005424;-0.054961774
821;-2.6322193;2.7986405;-3.0204556;2.859344;-9.364594;0.54673886;-0.03062545;-0.5768237;0.23488387;-0.06803273;0.28005424;-0.054961774
822;-2.6322193;2.7986405;-3.0204556;2.859344;-9.364594;0.54673886;-0.03062545;-0.5768237;0.23488387;-0.06803273;0.28005424;-0.054961774
823;-2.6322193;2.7986405;-3.0204556;2.859344;-9.364594;0.54673886;-0.03062545;-0.5768237;0.23488387;-0.06803273;0.28005424;-0.054961774
824;-2.6322193;2.7986405;-3.0204556;2.859344;-9.364594;0.54673886;-0.03062545;-0.5768237;0.23488387;-0.06803273;0.28005424;-0.054961774
825;-2.700464;2.8377738;-2.9554873;2.5024204;-9.4792;0.23028827;-0.03062545;-0.5768237;0.23488387;-0.100299165;-0.09215188;-0.09180403
826;-2.700464;2.8377738;-2.9554873;2.5024204;-9.4792;0.23028827;-0.03062545;-0.5768237;0.23488387;-0.100299165;-0.09215188;-0.09180403
827;-2.700464;2.8377738;-2.9554873;2.5024204;-9.4792;0.23028827;0.28787923;0.98574;0.26857188;-0.100299165;-0.09215188;-0.09180403
828;-2.700464;2.8377738;-2.9554873;2.5024204;-9.4792;0.23028827;0.28787923;0.98574;0.26857188;-0.100299165;-0.09215188;-0.09180403
829;-2.700464;2.8377738;-2.9554873;2.5024204;-9.4792;0.23028827;0.28787923;0.98574;0.26857188;-0.100299165;-0.09215188;-0.09180403
830;-2.700464;2.8377738;-2.9554873;2.5024204;-9.4792;0.23028827;0.28787923;0.98574;0.26857188;-0.100299165;-0.09215188;-0.09180403
831;-2.7278457;2.9169273;2.8768091;2.5024204;-9.4792;0.23028827;0.28787923;0.98574;0.26857188;-0.33133173;0.217411;0.03317046
832;-2.7278457;2.9169273;2.8768091;2.0073626;-9.538107;1.0795342;0.28787923;0.98574;0.26857188;-0.33133173;0.217411;0.03317046
833;-2.7278457;2.9169273;2.8768091;2.0073626;-9.538107;1.0795342;0.5505923;1.4308742;-0.4762923;-0.33133173;0.217411;0.03317046
834;-2.7278457;2.9169273;2.8768091;2.0073626;-9.538107;1.0795342;0.5505923;1.4308742;-0.4762923;-0.33133173;0.217411;0.03317046
835;-2.7278457;2.9169273;2.8768091;2.0073626;-9.538107;1.0795342;0.5505923;1.4308742;-0.4762923;-0.33133173;0.217411;0.03317046
836;-2.7278457;2.9169273;2.8768091;2.0073626;-9.538107;1.0795342;0.5505923;1.4308742;-0.4762923;-0.33133173;0.217411;0.03317046
837;-2.5804594;2.7886136;2.7913575;2.3940477;-9.142366;2.6184096;0.5505923;1.4308742;-0.4762923;-0.06959129;0.18897077;0.017261602
838;-2.5804594;2.7886136;2.7913575;2.3940477;-9.142366;2.6184096;0.5505923;1.4308742;-0.4762923;-0.06959129;0.18897077;0.017261602
839;-2.5804594;2.7886136;2.7913575;2.3940477;-9.142366;2.6184096;-1.3871998;2.3650837;-0.71210825;-0.06959129;0.18897077;0.017261602
840;-2.5804594;2.7886136;2.7913575;2.3940477;-9.142366;2.6184096;-1.3871998;2.3650837;-0.71210825;-0.06959129;0.18897077;0.017261602
841;-2.5804594;2.7886136;2.7913575;2.3940477;-9.142366;2.6184096;-1.3871998;2.3650837;-0.71210825;-0.06959129;0.18897077;0.017261602
842;-2.5804594;2.7886136;2.7913575;2.3940477;-9.142366;2.6184096;-1.3871998;2.3650837;-0.71210825;-0.06959129;0.18897077;0.017261602
843;-2.7210257;2.3899484;-3.0284247;2.712092;-9.344795;1.2205571;-1.3871998;2.3650837;-0.71210825;-0.022906167;0.048334893;-0.031404465
844;-2.7210257;2.3899484;-3.0284247;2.712092;-9.344795;1.2205571;-1.3871998;2.3650837;-0.71210825;-0.022906167;0.048334893;-0.031404465
845;-2.7210257;2.3899484;-3.0284247;2.712092;-9.344795;1.2205571;-0.3921389;1.8801363;-0.17136936;-0.022906167;0.048334893;-0.031404465
846;-2.7210257;2.3899484;-3.0284247;2.712092;-9.344795;1.2205571;-0.3921389;1.8801363;-0.17136936;-0.022906167;0.048334893;-0.031404465
847;-2.7210257;2.3899484;-3.0284247;2.712092;-9.344795;1.2205571;-0.3921389;1.8801363;-0.17136936;-0.022906167;0.048334893;-0.031404465
848;-2.7210257;2.3899484;-3.0284247;2.712092;-9.344795;1.2205571;-0.3921389;1.8801363;-0.17136936;-0.022906167;0.048334893;-0.031404465
849;2.657768;0.38978127;-2.9336653;2.5934572;-9.337398;1.5024551;-0.3921389;1.8801363;-0.17136936;-0.061943866;0.010343927;0.041147497
850;2.657768;0.38978127;-2.9336653;2.5934572;-9.337398;1.5024551;-0.3921389;1.8801363;-0.17136936;-0.061943866;0.010343927;0.041147497
851;2.657768;0.38978127;-2.9336653;2.5934572;-9.337398;1.5024551;-1.343392;1.7957165;-0.37003532;-0.061943866;0.010343927;0.041147497
852;2.657768;0.38978127;-2.9336653;2.5934572;-9.337398;1.5024551;-1.343392;1.7957165;-0.37003532;-0.061943866;0.010343927;0.041147497
853;2.657768;0.38978127;-2.9336653;2.5934572;-9.337398;1.5024551;-1.343392;1.7957165;-0.37003532;-0.061943866;0.010343927;0.041147497
854;2.657768;0.38978127;-2.9336653;2.5934572;-9.337398;1.5024551;-1.343392;1.7957165;-0.37003532;-0.061943866;0.010343927;0.041147497
855;1.5998337;0.36148846;-2.829727;3.0081065;-9.333719;-0.058057144;-1.343392;1.7957165;-0.37003532;-0.06949063;0.044027433;-0.05147751
856;1.5998337;0.36148846;-2.829727;3.0081065;-9.333719;-0.058057144;-1.343392;1.7957165;-0.37003532;-0.06949063;0.044027433;-0.05147751
857;1.5998337;0.36148846;-2.829727;3.0081065;-9.333719;-0.058057144;-0.86110777;1.1045135;-0.0058587817;-0.06949063;0.044027433;-0.05147751
858;1.5998337;0.36148846;-2.829727;3.0081065;-9.333719;-0.058057144;-0.86110777;1.1045135;-0.0058587817;-0.06949063;0.044027433;-0.05147751
859;1.5998337;0.36148846;-2.829727;3.0081065;-9.333719;-0.058057144;-0.86110777;1.1045135;-0.0058587817;-0.06949063;0.044027433;-0.05147751
860;1.5998337;0.36148846;-2.829727;3.0081065;-9.333719;-0.058057144;-0.86110777;1.1045135;-0.0058587817;-0.06949063;0.044027433;-0.05147751
861;1.0948528;0.5308599;-2.8540723;3.145139;-9.244266;-0.906664;-0.86110777;1.1045135;-0.0058587817;-0.028435996;-0.11513623;-0.00092480157
862;1.0948528;0.5308599;-2.8540723;3.145139;-9.244266;-0.906664;-0.86110777;1.1045135;-0.0058587817;-0.028435996;-0.11513623;-0.00092480157
863;1.0948528;0.5308599;-2.8540723;3.145139;-9.244266;-0.906664;0.108254306;2.2741394;0.406919;-0.028435996;-0.11513623;-0.00092480157
864;1.0948528;0.5308599;-2.8540723;3.145139;-9.244266;-0.906664;0.108254306;2.2741394;0.406919;-0.028435996;-0.11513623;-0.00092480157
865;1.0948528;0.5308599;-2.8540723;3.145139;-9.244266;-0.906664;0.108254306;2.2741394;0.406919;-0.028435996;-0.11513623;-0.00092480157
866;1.0948528;0.5308599;-2.8540723;3.145139;-9.244266;-0.906664;0.108254306;2.2741394;0.406919;-0.028435996;-0.11513623;-0.00092480157
867;0.8415493;1.2085071;-2.824513;2.609329;-9.435435;0.5782386;0.108254306;2.2741394;0.406919;-0.2183459;0.071194686;0.0039004404
868;0.8415493;1.2085071;-2.824513;2.609329;-9.435435;0.5782386;0.108254306;2.2741394;0.406919;-0.2183459;0.071194686;0.0039004404
869;0.8415493;1.2085071;-2.824513;2.609329;-9.435435;0.5782386;0.19320664;2.6676097;-0.9117063;-0.2183459;0.071194686;0.0039004404
870;0.8415493;1.2085071;-2.824513;2.609329;-9.435435;0.5782386;0.19320664;2.6676097;-0.9117063;-0.2183459;0.071194686;0.0039004404
871;0.8415493;1.2085071;-2.824513;2.609329;-9.435435;0.5782386;0.19320664;2.6676097;-0.9117063;-0.2183459;0.071194686;0.0039004404
872;0.8415493;1.2085071;-2.824513;2.609329;-9.435435;0.5782386;0.19320664;2.6676097;-0.9117063;-0.2183459;0.071194686;0.0039004404
873;0.79768854;2.6919403;-2.342186;3.4972832;-8.850577;2.3678434;0.19320664;2.6676097;-0.9117063;-0.04442586;0.26190957;0.043980423
874;0.79768854;2.6919403;-2.342186;3.4972832;-8.850577;2.3678434;0.19320664;2.6676097;-0.9117063;-0.04442586;0.26190957;0.043980423
875;0.79768854;2.6919403;-2.342186;3.4972832;-8.850577;2.3678434;-0.8536511;1.2592386;-0.53368175;-0.04442586;0.26190957;0.043980423
876;0.79768854;2.6919403;-2.342186;3.4972832;-8.850577;2.3678434;-0.8536511;1.2592386;-0.53368175;-0.04442586;0.26190957;0.043980423
877;0.79768854;2.6919403;-2.342186;3.4972832;-8.850577;2.3678434;-0.8536511;1.2592386;-0.53368175;-0.04442586;0.26190957;0.043980423
878;0.79768854;2.6919403;-2.342186;3.4972832;-8.850577;2.3678434;-0.8536511;1.2592386;-0.53368175;-0.04442586;0.26190957;0.043980423
879;0.6333286;2.7700775;-1.0360544;3.7550364;-8.884919;1.7687004;-0.8536511;1.2592386;-0.53368175;0.20327789;0.043409325;-0.0017281822
880;0.6333286;2.7700775;-1.0360544;3.7550364;-8.884919;1.7687004;-0.8536511;1.2592386;-0.53368175;0.20327789;0.043409325;-0.0017281822
881;0.6333286;2.7700775;-1.0360544;3.7550364;-8.884919;1.7687004;-0.5219642;0.9535167;0.043807708;0.20327789;0.043409325;-0.0017281822
882;0.6333286;2.7700775;-1.0360544;3.7550364;-8.884919;1.7687004;-0.5219642;0.9535167;0.043807708;0.20327789;0.043409325;-0.0017281822
883;0.6333286;2.7700775;-1.0360544;3.7550364;-8.884919;1.7687004;-0.5219642;0.9535167;0.043807708;0.20327789;0.043409325;-0.0017281822
884;0.6333286;2.7700775;-1.0360544;3.7550364;-8.884919;1.7687004;-0.5219642;0.9535167;0.043807708;0.20327789;0.043409325;-0.0017281822
885;0.5826272;2.702842;-0.07571912;3.3481784;-9.076788;1.6037465;-0.5219642;0.9535167;0.043807708;-0.011276882;-0.16713667;0.112086765
886;0.5826272;2.702842;-0.07571912;3.3481784;-9.076788;1.6037465;-0.5219642;0.9535167;0.043807708;-0.011276882;-0.16713667;0.112086765
887;0.5826272;2.702842;-0.07571912;3.3481784;-9.076788;1.6037465;-0.5090482;-0.42888945;-0.29759946;-0.011276882;-0.16713667;0.112086765
888;0.5826272;2.702842;-0.07571912;3.3481784;-9.076788;1.6037465;-0.5090482;-0.42888945;-0.29759946;-0.011276882;-0.16713667;0.112086765
889;0.5826272;2.702842;-0.07571912;3.3481784;-9.076788;1.6037465;-0.5090482;-0.42888945;-0.29759946;-0.011276882;-0.16713667;0.112086765
890;0.5826272;2.702842;-0.07571912;3.3481784;-9.076788;1.6037465;-0.5090482;-0.42888945;-0.29759946;-0.011276882;-0.16713667;0.112086765
891;0.8011321;2.4883642;0.35946697;3.9272342;-8.980383;0.31612548;-0.5090482;-0.42888945;-0.29759946;0.060688924;0.10583565;-0.029984355
892;0.8011321;2.4883642;0.35946697;3.9272342;-8.980383;0.31612548;-0.5090482;-0.42888945;-0.29759946;0.060688924;0.10583565;-0.029984355
893;0.8011321;2.4883642;0.35946697;3.9272342;-8.980383;0.31612548;-0.14793424;-0.69120306;0.22596255;0.060688924;0.10583565;-0.029984355
894;0.8011321;2.4883642;0.35946697;3.9272342;-8.980383;0.31612548;-0.14793424;-0.69120306;0.22596255;0.060688924;0.10583565;-0.029984355
895;0.8011321;2.4883642;0.35946697;3.9272342;-8.980383;0.31612548;-0.14793424;-0.69120306;0.22596255;0.060688924;0.10583565;-0.029984355
896;0.8011321;2.4883642;0.35946697;3.9272342;-8.980383;0.31612548;-0.14793424;-0.69120306;0.22596255;0.060688924;0.10583565;-0.029984355
897;0.75475687;2.6109145;0.4438665;3.5023239;-9.149794;-0.43056977;-0.14793424;-0.69120306;0.22596255;0.018485582;-0.079896376;-0.05615275
